# baseURI: https://raw.githubusercontent.com/phuse-org/CTDasRDF/master/data/rdf/sdtm-cdisc01.ttl
# imports: http://spinrdf.org/spl
# imports: http://www.w3.org/2004/02/skos/core
# imports: https://raw.githubusercontent.com/phuse-org/CTDasRDF/master/data/rdf/cdiscpilot01-protocol.ttl
# imports: https://raw.githubusercontent.com/phuse-org/CTDasRDF/master/data/rdf/cdiscpilot01.ttl
# imports: https://raw.githubusercontent.com/phuse-org/CTDasRDF/master/data/rdf/code.ttl
# imports: https://raw.githubusercontent.com/phuse-org/CTDasRDF/master/data/rdf/ct-schema.rdf
# imports: https://raw.githubusercontent.com/phuse-org/CTDasRDF/master/data/rdf/meta-model-schema.rdf
# imports: https://raw.githubusercontent.com/phuse-org/CTDasRDF/master/data/rdf/sdtm.ttl
# imports: https://raw.githubusercontent.com/phuse-org/CTDasRDF/master/data/rdf/sdtm-terminology.rdf
# imports: https://raw.githubusercontent.com/phuse-org/CTDasRDF/master/data/rdf/study.ttl

@prefix arg: <http://spinrdf.org/arg#> .
@prefix owl: <http://www.w3.org/2002/07/owl#> .
@prefix rdf: <http://www.w3.org/1999/02/22-rdf-syntax-ns#> .
@prefix rdfs: <http://www.w3.org/2000/01/rdf-schema#> .
@prefix sdtm: <https://raw.githubusercontent.com/phuse-org/CTDasRDF/master/data/rdf/sdtm.ttl#> .
@prefix sdtm-cdisc01: <https://raw.githubusercontent.com/phuse-org/CTDasRDF/master/data/rdf/sdtm-cdisc01.ttl#> .
@prefix skos: <http://www.w3.org/2004/02/skos/core#> .
@prefix sp: <http://spinrdf.org/sp#> .
@prefix spin: <http://spinrdf.org/spin#> .
@prefix spl: <http://spinrdf.org/spl#> .
@prefix study: <https://raw.githubusercontent.com/phuse-org/CTDasRDF/master/data/rdf/study.ttl#> .
@prefix xsd: <http://www.w3.org/2001/XMLSchema#> .

<http://www.w3.org/2006/time#unitYear>
  skos:prefLabel "YEAR"^^xsd:string ;
.
<https://raw.githubusercontent.com/phuse-org/CTDasRDF/master/data/rdf/sdtm-cdisc01.ttl>
  rdf:type owl:Ontology ;
  owl:imports <http://spinrdf.org/spl> ;
  owl:imports <http://www.w3.org/2004/02/skos/core> ;
  owl:imports <https://raw.githubusercontent.com/phuse-org/CTDasRDF/master/data/rdf/cdiscpilot01-protocol.ttl> ;
  owl:imports <https://raw.githubusercontent.com/phuse-org/CTDasRDF/master/data/rdf/cdiscpilot01.ttl> ;
  owl:imports <https://raw.githubusercontent.com/phuse-org/CTDasRDF/master/data/rdf/code.ttl> ;
  owl:imports <https://raw.githubusercontent.com/phuse-org/CTDasRDF/master/data/rdf/ct-schema.rdf> ;
  owl:imports <https://raw.githubusercontent.com/phuse-org/CTDasRDF/master/data/rdf/meta-model-schema.rdf> ;
  owl:imports <https://raw.githubusercontent.com/phuse-org/CTDasRDF/master/data/rdf/sdtm.ttl> ;
  owl:imports <https://raw.githubusercontent.com/phuse-org/CTDasRDF/master/data/rdf/sdtm-terminology.rdf> ;
  owl:imports <https://raw.githubusercontent.com/phuse-org/CTDasRDF/master/data/rdf/study.ttl> ;
  owl:versionInfo "Created with TopBraid Composer"^^xsd:string ;
.
sdtm-cdisc01:DM_CDISCPILOT01
  rdf:type sdtm:DM_Domain ;
  spin:query [
      rdf:type sp:Select ;
      sp:orderBy (
          [
            rdf:type sp:Asc ;
            sp:expression [
                sp:varName "USUBJID"^^xsd:string ;
              ] ;
          ]
        ) ;
      sp:resultVariables (
          [
            sp:varName "STUDYID"^^xsd:string ;
          ]
          [
            sp:varName "DOMAIN"^^xsd:string ;
          ]
          [
            sp:varName "USUBJID"^^xsd:string ;
          ]
          [
            sp:varName "SUBJID"^^xsd:string ;
          ]
          [
            sp:varName "RFSTDTC"^^xsd:string ;
          ]
          [
            sp:varName "RFENDTC"^^xsd:string ;
          ]
          [
            sp:varName "RFXSTDTC"^^xsd:string ;
          ]
          [
            sp:varName "RFXENDTC"^^xsd:string ;
          ]
          [
            sp:varName "RFICDTC"^^xsd:string ;
          ]
          [
            sp:varName "RFPENDTC"^^xsd:string ;
          ]
          [
            sp:varName "BRTHDTC"^^xsd:string ;
          ]
          [
            sp:varName "DTHDTC"^^xsd:string ;
          ]
          [
            sp:varName "DTHFL"^^xsd:string ;
          ]
          [
            sp:varName "SITEID"^^xsd:string ;
          ]
          [
            sp:varName "INVNAM"^^xsd:string ;
          ]
          [
            sp:varName "INVID"^^xsd:string ;
          ]
          [
            sp:varName "AGE"^^xsd:string ;
          ]
          [
            sp:varName "AGEU"^^xsd:string ;
          ]
          [
            sp:varName "SEX"^^xsd:string ;
          ]
          [
            sp:varName "RACE"^^xsd:string ;
          ]
          [
            sp:varName "ETHNIC"^^xsd:string ;
          ]
          [
            sp:varName "ARMCD"^^xsd:string ;
          ]
          [
            sp:varName "ARM"^^xsd:string ;
          ]
          [
            sp:varName "ACTARMCD"^^xsd:string ;
          ]
          [
            sp:varName "ACTARM"^^xsd:string ;
          ]
          [
            sp:varName "COUNTRY"^^xsd:string ;
          ]
          [
            sp:varName "DMDTC"^^xsd:string ;
          ]
          [
            sp:varName "DMDY"^^xsd:string ;
          ]
        ) ;
      sp:where (
          [
            sp:object [
                sp:varName "DOMAIN"^^xsd:string ;
              ] ;
            sp:predicate <http://rdf.cdisc.org/mms#contextName> ;
            sp:subject <http://rdf.cdisc.org/std/sdtmig-3-1-3#Dataset.DM> ;
          ]
          [
            sp:object study:Study ;
            sp:predicate rdf:type ;
            sp:subject [
                sp:varName "study"^^xsd:string ;
              ] ;
          ]
          [
            sp:object [
                sp:varName "STUDYID"^^xsd:string ;
              ] ;
            sp:predicate study:hasStudyID ;
            sp:subject [
                sp:varName "study"^^xsd:string ;
              ] ;
          ]
          [
            sp:object [
                sp:varName "SUBJID"^^xsd:string ;
              ] ;
            sp:predicate study:hasSubjectID ;
            sp:subject [
                sp:varName "subject"^^xsd:string ;
              ] ;
          ]
          [
            sp:object [
                sp:varName "USUBJID"^^xsd:string ;
              ] ;
            sp:predicate study:hasUniqueSubjectID ;
            sp:subject [
                sp:varName "subject"^^xsd:string ;
              ] ;
          ]
          [
            sp:object [
                sp:varName "actualarm"^^xsd:string ;
              ] ;
            sp:predicate study:actualArm ;
            sp:subject [
                sp:varName "subject"^^xsd:string ;
              ] ;
          ]
          [
            sp:object [
                sp:varName "ACTARM"^^xsd:string ;
              ] ;
            sp:predicate skos:prefLabel ;
            sp:subject [
                sp:varName "actualarm"^^xsd:string ;
              ] ;
          ]
          [
            sp:object [
                sp:varName "ACTARMCD"^^xsd:string ;
              ] ;
            sp:predicate skos:altLabel ;
            sp:subject [
                sp:varName "actualarm"^^xsd:string ;
              ] ;
          ]
          [
            sp:object [
                sp:varName "rndmact"^^xsd:string ;
              ] ;
            sp:predicate study:participatesIn ;
            sp:subject [
                sp:varName "subject"^^xsd:string ;
              ] ;
          ]
          [
            sp:object study:Randomization ;
            sp:predicate rdf:type ;
            sp:subject [
                sp:varName "rndmact"^^xsd:string ;
              ] ;
          ]
          [
            sp:object [
                sp:varName "plannedarm"^^xsd:string ;
              ] ;
            sp:predicate <https://raw.githubusercontent.com/phuse-org/CTDasRDF/master/data/rdf/code.ttl#hasPermissibleOutcome> ;
            sp:subject [
                sp:varName "rndmact"^^xsd:string ;
              ] ;
          ]
          [
            sp:object <https://raw.githubusercontent.com/phuse-org/CTDasRDF/master/data/rdf/code.ttl#RandomizationOutcome> ;
            sp:predicate rdf:type ;
            sp:subject [
                sp:varName "plannedarm"^^xsd:string ;
              ] ;
          ]
          [
            sp:object [
                sp:varName "ARM"^^xsd:string ;
              ] ;
            sp:predicate skos:prefLabel ;
            sp:subject [
                sp:varName "plannedarm"^^xsd:string ;
              ] ;
          ]
          [
            sp:object [
                sp:varName "ARMCD"^^xsd:string ;
              ] ;
            sp:predicate skos:altLabel ;
            sp:subject [
                sp:varName "plannedarm"^^xsd:string ;
              ] ;
          ]
          [
            sp:object [
                sp:varName "lfspn"^^xsd:string ;
              ] ;
            sp:predicate study:hasLifespan ;
            sp:subject [
                sp:varName "subject"^^xsd:string ;
              ] ;
          ]
          [
            sp:object [
                sp:varName "brthd"^^xsd:string ;
              ] ;
            sp:predicate <http://www.w3.org/2006/time#hasBeginning> ;
            sp:subject [
                sp:varName "lfspn"^^xsd:string ;
              ] ;
          ]
          [
            sp:object [
                sp:varName "BRTHDTC"^^xsd:string ;
              ] ;
            sp:predicate study:dateTimeInXSDString ;
            sp:subject [
                sp:varName "brthd"^^xsd:string ;
              ] ;
          ]
          [
            rdf:type sp:Optional ;
            sp:elements (
                [
                  sp:object [
                      sp:varName "dthdate"^^xsd:string ;
                    ] ;
                  sp:predicate <http://www.w3.org/2006/time#hasEnd> ;
                  sp:subject [
                      sp:varName "lfspn"^^xsd:string ;
                    ] ;
                ]
                [
                  sp:object [
                      sp:varName "DTHDTC"^^xsd:string ;
                    ] ;
                  sp:predicate study:dateTimeInXSDString ;
                  sp:subject [
                      sp:varName "dthdate"^^xsd:string ;
                    ] ;
                ]
                [
                  sp:object [
                      sp:varName "DTHFL"^^xsd:string ;
                    ] ;
                  sp:predicate study:deathFlag ;
                  sp:subject [
                      sp:varName "subject"^^xsd:string ;
                    ] ;
                ]
              ) ;
          ]
          [
            sp:object [
                sp:varName "refintrvl"^^xsd:string ;
              ] ;
            sp:predicate study:hasReferenceInterval ;
            sp:subject [
                sp:varName "subject"^^xsd:string ;
              ] ;
          ]
          [
            sp:object [
                sp:varName "refstrt"^^xsd:string ;
              ] ;
            sp:predicate <http://www.w3.org/2006/time#hasBeginning> ;
            sp:subject [
                sp:varName "refintrvl"^^xsd:string ;
              ] ;
          ]
          [
            sp:object [
                sp:varName "RFSTDTC"^^xsd:string ;
              ] ;
            sp:predicate study:dateTimeInXSDString ;
            sp:subject [
                sp:varName "refstrt"^^xsd:string ;
              ] ;
          ]
          [
            sp:object [
                sp:varName "refend"^^xsd:string ;
              ] ;
            sp:predicate <http://www.w3.org/2006/time#hasEnd> ;
            sp:subject [
                sp:varName "refintrvl"^^xsd:string ;
              ] ;
          ]
          [
            sp:object [
                sp:varName "RFENDTC"^^xsd:string ;
              ] ;
            sp:predicate study:dateTimeInXSDString ;
            sp:subject [
                sp:varName "refend"^^xsd:string ;
              ] ;
          ]
          [
            sp:object [
                sp:varName "demogcoll"^^xsd:string ;
              ] ;
            sp:predicate study:participatesIn ;
            sp:subject [
                sp:varName "subject"^^xsd:string ;
              ] ;
          ]
          [
            sp:object <https://raw.githubusercontent.com/phuse-org/CTDasRDF/master/data/rdf/code.ttl#DemographicDataCollection> ;
            sp:predicate rdf:type ;
            sp:subject [
                sp:varName "demogcoll"^^xsd:string ;
              ] ;
          ]
          [
            sp:object [
                sp:varName "dmdatacolldate"^^xsd:string ;
              ] ;
            sp:predicate study:hasDate ;
            sp:subject [
                sp:varName "demogcoll"^^xsd:string ;
              ] ;
          ]
          [
            sp:object study:DemogDataCollectionDate ;
            sp:predicate rdf:type ;
            sp:subject [
                sp:varName "dmdatacolldate"^^xsd:string ;
              ] ;
          ]
          [
            sp:object [
                sp:varName "DMDTC"^^xsd:string ;
              ] ;
            sp:predicate study:dateTimeInXSDString ;
            sp:subject [
                sp:varName "dmdatacolldate"^^xsd:string ;
              ] ;
          ]
          [
            rdf:type sp:Bind ;
            sp:expression [
                rdf:type study:studyday ;
                arg:activityDate [
                    sp:varName "DMDTC"^^xsd:string ;
                  ] ;
                arg:refDate [
                    sp:varName "RFSTDTC"^^xsd:string ;
                  ] ;
              ] ;
            sp:variable [
                sp:varName "DMDY"^^xsd:string ;
              ] ;
          ]
          [
            sp:object [
                sp:varName "ageoutcome"^^xsd:string ;
              ] ;
            sp:predicate <https://raw.githubusercontent.com/phuse-org/CTDasRDF/master/data/rdf/code.ttl#hasAge> ;
            sp:subject [
                sp:varName "demogcoll"^^xsd:string ;
              ] ;
          ]
          [
            sp:object [
                sp:varName "AGE"^^xsd:string ;
              ] ;
            sp:predicate <https://raw.githubusercontent.com/phuse-org/CTDasRDF/master/data/rdf/code.ttl#hasValue> ;
            sp:subject [
                sp:varName "ageoutcome"^^xsd:string ;
              ] ;
          ]
          [
            sp:object [
                sp:varName "ageunit"^^xsd:string ;
              ] ;
            sp:predicate <https://raw.githubusercontent.com/phuse-org/CTDasRDF/master/data/rdf/code.ttl#hasUnit> ;
            sp:subject [
                sp:varName "ageoutcome"^^xsd:string ;
              ] ;
          ]
          [
            sp:object [
                sp:varName "AGEU"^^xsd:string ;
              ] ;
            sp:predicate skos:prefLabel ;
            sp:subject [
                sp:varName "ageunit"^^xsd:string ;
              ] ;
          ]
          [
            sp:object [
                sp:varName "ethn"^^xsd:string ;
              ] ;
            sp:predicate <https://raw.githubusercontent.com/phuse-org/CTDasRDF/master/data/rdf/code.ttl#hasEthnicity> ;
            sp:subject [
                sp:varName "demogcoll"^^xsd:string ;
              ] ;
          ]
          [
            sp:object [
                sp:varName "ETHNIC"^^xsd:string ;
              ] ;
            sp:predicate <https://raw.githubusercontent.com/phuse-org/CTDasRDF/master/data/rdf/ct-schema.rdf#cdiscSubmissionValue> ;
            sp:subject [
                sp:varName "ethn"^^xsd:string ;
              ] ;
          ]
          [
            sp:object [
                sp:varName "race"^^xsd:string ;
              ] ;
            sp:predicate <https://raw.githubusercontent.com/phuse-org/CTDasRDF/master/data/rdf/code.ttl#hasRace> ;
            sp:subject [
                sp:varName "demogcoll"^^xsd:string ;
              ] ;
          ]
          [
            sp:object [
                sp:varName "RACE"^^xsd:string ;
              ] ;
            sp:predicate <https://raw.githubusercontent.com/phuse-org/CTDasRDF/master/data/rdf/ct-schema.rdf#cdiscSubmissionValue> ;
            sp:subject [
                sp:varName "race"^^xsd:string ;
              ] ;
          ]
          [
            sp:object [
                sp:varName "sex"^^xsd:string ;
              ] ;
            sp:predicate <https://raw.githubusercontent.com/phuse-org/CTDasRDF/master/data/rdf/code.ttl#hasSex> ;
            sp:subject [
                sp:varName "demogcoll"^^xsd:string ;
              ] ;
          ]
          [
            sp:object [
                sp:varName "SEX"^^xsd:string ;
              ] ;
            sp:predicate <https://raw.githubusercontent.com/phuse-org/CTDasRDF/master/data/rdf/ct-schema.rdf#cdiscSubmissionValue> ;
            sp:subject [
                sp:varName "sex"^^xsd:string ;
              ] ;
          ]
          [
            sp:object [
                sp:varName "padmin"^^xsd:string ;
              ] ;
            sp:predicate study:participatesIn ;
            sp:subject [
                sp:varName "subject"^^xsd:string ;
              ] ;
          ]
          [
            sp:object study:ProductAdministration ;
            sp:predicate rdf:type ;
            sp:subject [
                sp:varName "padmin"^^xsd:string ;
              ] ;
          ]
          [
            sp:object [
                sp:varName "paintrvl"^^xsd:string ;
              ] ;
            sp:predicate study:hasActivityInterval ;
            sp:subject [
                sp:varName "padmin"^^xsd:string ;
              ] ;
          ]
          [
            sp:object [
                sp:varName "padminstart"^^xsd:string ;
              ] ;
            sp:predicate <http://www.w3.org/2006/time#hasBeginning> ;
            sp:subject [
                sp:varName "paintrvl"^^xsd:string ;
              ] ;
          ]
          [
            sp:object [
                sp:varName "RFXSTDTC"^^xsd:string ;
              ] ;
            sp:predicate study:dateTimeInXSDString ;
            sp:subject [
                sp:varName "padminstart"^^xsd:string ;
              ] ;
          ]
          [
            sp:object [
                sp:varName "padminend"^^xsd:string ;
              ] ;
            sp:predicate <http://www.w3.org/2006/time#hasEnd> ;
            sp:subject [
                sp:varName "paintrvl"^^xsd:string ;
              ] ;
          ]
          [
            sp:object [
                sp:varName "RFXENDTC"^^xsd:string ;
              ] ;
            sp:predicate study:dateTimeInXSDString ;
            sp:subject [
                sp:varName "padminend"^^xsd:string ;
              ] ;
          ]
          [
            sp:object [
                sp:varName "informedconsent"^^xsd:string ;
              ] ;
            sp:predicate study:participatesIn ;
            sp:subject [
                sp:varName "subject"^^xsd:string ;
              ] ;
          ]
          [
            sp:object <https://raw.githubusercontent.com/phuse-org/CTDasRDF/master/data/rdf/code.ttl#InformedConsentOutcome_1> ;
            sp:predicate <https://raw.githubusercontent.com/phuse-org/CTDasRDF/master/data/rdf/code.ttl#hasPermissibleOutcome> ;
            sp:subject [
                sp:varName "informedconsent"^^xsd:string ;
              ] ;
          ]
          [
            sp:object [
                sp:varName "icinterval"^^xsd:string ;
              ] ;
            sp:predicate study:hasActivityInterval ;
            sp:subject [
                sp:varName "informedconsent"^^xsd:string ;
              ] ;
          ]
          [
            sp:object [
                sp:varName "icbegin"^^xsd:string ;
              ] ;
            sp:predicate <http://www.w3.org/2006/time#hasBeginning> ;
            sp:subject [
                sp:varName "icinterval"^^xsd:string ;
              ] ;
          ]
          [
            sp:object study:InformedConsentBegin ;
            sp:predicate rdf:type ;
            sp:subject [
                sp:varName "icbegin"^^xsd:string ;
              ] ;
          ]
          [
            sp:object [
                sp:varName "RFICDTC"^^xsd:string ;
              ] ;
            sp:predicate study:dateTimeInXSDString ;
            sp:subject [
                sp:varName "icbegin"^^xsd:string ;
              ] ;
          ]
          [
            sp:object [
                sp:varName "spi"^^xsd:string ;
              ] ;
            sp:predicate study:hasStudyParticipationInterval ;
            sp:subject [
                sp:varName "subject"^^xsd:string ;
              ] ;
          ]
          [
            sp:object [
                sp:varName "rfpend"^^xsd:string ;
              ] ;
            sp:predicate <http://www.w3.org/2006/time#hasEnd> ;
            sp:subject [
                sp:varName "spi"^^xsd:string ;
              ] ;
          ]
          [
            sp:object [
                sp:varName "RFPENDTC"^^xsd:string ;
              ] ;
            sp:predicate study:dateTimeInXSDString ;
            sp:subject [
                sp:varName "rfpend"^^xsd:string ;
              ] ;
          ]
          [
            sp:object [
                sp:varName "site"^^xsd:string ;
              ] ;
            sp:predicate study:hasSite ;
            sp:subject [
                sp:varName "subject"^^xsd:string ;
              ] ;
          ]
          [
            sp:object [
                sp:varName "SITEID"^^xsd:string ;
              ] ;
            sp:predicate study:hasSiteID ;
            sp:subject [
                sp:varName "site"^^xsd:string ;
              ] ;
          ]
          [
            sp:object [
                sp:varName "inv"^^xsd:string ;
              ] ;
            sp:predicate study:hasInvestigator ;
            sp:subject [
                sp:varName "site"^^xsd:string ;
              ] ;
          ]
          [
            sp:object [
                sp:varName "INVID"^^xsd:string ;
              ] ;
            sp:predicate study:hasInvestigatorID ;
            sp:subject [
                sp:varName "inv"^^xsd:string ;
              ] ;
          ]
          [
            sp:object [
                sp:varName "INVNAM"^^xsd:string ;
              ] ;
            sp:predicate study:hasLastName ;
            sp:subject [
                sp:varName "inv"^^xsd:string ;
              ] ;
          ]
          [
            sp:object [
                sp:varName "ctry"^^xsd:string ;
              ] ;
            sp:predicate study:hasCountry ;
            sp:subject [
                sp:varName "site"^^xsd:string ;
              ] ;
          ]
          [
            sp:object [
                sp:varName "COUNTRY"^^xsd:string ;
              ] ;
            sp:predicate rdfs:label ;
            sp:subject [
                sp:varName "ctry"^^xsd:string ;
              ] ;
          ]
        ) ;
      rdfs:comment "work in progress to create a single DM domain query"^^xsd:string ;
    ] ;
  rdfs:comment ""^^xsd:string ;
  rdfs:label "DM CDISCPILOT01"^^xsd:string ;
  skos:definition ""^^xsd:string ;
  sdtm:hasCode <http://rdf.cdisc.org/std/sdtmig-3-1-3#Dataset.DM> ;
  sdtm:hasRecord sdtm-cdisc01:SDTM_DM_Record_1 ;
  sdtm:hasRecord sdtm-cdisc01:SDTM_DM_Record_2 ;
  sdtm:hasRecord sdtm-cdisc01:SDTM_DM_Record_3 ;
.
sdtm-cdisc01:SDTMDefineRecord_DM_STUDYID_1
  rdf:type sdtm:SDTMDefineRecord_DM_STUDYID ;
  skos:altLabel ""^^xsd:string ;
  skos:prefLabel "SDTMDefine record DM STUDYID 1"^^xsd:string ;
  sdtm:hasDFSequence 1 ;
  sdtm:hasDFVariable <http://rdf.cdisc.org/std/sdtmig-3-1-3#Column.DM.STUDYID> ;
.
sdtm-cdisc01:SDTM_DM_Record_1
  rdf:type sdtm:SDTM_DM_Record ;
  rdfs:comment ""^^xsd:string ;
  rdfs:label "SDTM DM Record 1"^^xsd:string ;
  skos:definition ""^^xsd:string ;
  sdtm:hasEntity <https://raw.githubusercontent.com/phuse-org/CTDasRDF/master/data/rdf/cdiscpilot01.ttl#Person_1> ;
.
sdtm-cdisc01:SDTM_DM_Record_2
  rdf:type sdtm:SDTM_DM_Record ;
  rdfs:comment ""^^xsd:string ;
  rdfs:label "SDTM DM Record 2"^^xsd:string ;
  skos:definition ""^^xsd:string ;
  sdtm:hasEntity <https://raw.githubusercontent.com/phuse-org/CTDasRDF/master/data/rdf/cdiscpilot01.ttl#Person_2> ;
.
sdtm-cdisc01:SDTM_DM_Record_3
  rdf:type sdtm:SDTM_DM_Record ;
  rdfs:comment ""^^xsd:string ;
  rdfs:label "SDTM DM Record 3"^^xsd:string ;
  skos:definition ""^^xsd:string ;
  sdtm:hasEntity <https://raw.githubusercontent.com/phuse-org/CTDasRDF/master/data/rdf/cdiscpilot01.ttl#Person_3> ;
.
sdtm-cdisc01:SDTM_SUPPDM_Record_1
  rdf:type sdtm:SDTM_SUPPDM_Record ;
  rdfs:comment ""^^xsd:string ;
  rdfs:label "SDTM SUPPDM Record 1"^^xsd:string ;
  skos:definition ""^^xsd:string ;
  sdtm:hasActivity <https://raw.githubusercontent.com/phuse-org/CTDasRDF/master/data/rdf/cdiscpilot01.ttl#PopFlagCmpltr16Wk_1> ;
  sdtm:hasEntity <https://raw.githubusercontent.com/phuse-org/CTDasRDF/master/data/rdf/cdiscpilot01.ttl#Person_1> ;
.
sdtm-cdisc01:SDTM_SUPPDM_Record_2
  rdf:type sdtm:SDTM_SUPPDM_Record ;
  rdfs:comment ""^^xsd:string ;
  rdfs:label "SDTM SUPPDM Record 2"^^xsd:string ;
  skos:definition ""^^xsd:string ;
  sdtm:hasActivity <https://raw.githubusercontent.com/phuse-org/CTDasRDF/master/data/rdf/cdiscpilot01.ttl#PopFlagCmpltr24Wk_1> ;
  sdtm:hasEntity <https://raw.githubusercontent.com/phuse-org/CTDasRDF/master/data/rdf/cdiscpilot01.ttl#Person_1> ;
.
sdtm-cdisc01:SDTM_SUPPDM_Record_3
  rdf:type sdtm:SDTM_SUPPDM_Record ;
  rdfs:comment ""^^xsd:string ;
  rdfs:label "SDTM SUPPDM Record 3"^^xsd:string ;
  skos:definition ""^^xsd:string ;
  sdtm:hasActivity <https://raw.githubusercontent.com/phuse-org/CTDasRDF/master/data/rdf/cdiscpilot01.ttl#PopFlagCmpltr8Wk_1> ;
  sdtm:hasEntity <https://raw.githubusercontent.com/phuse-org/CTDasRDF/master/data/rdf/cdiscpilot01.ttl#Person_1> ;
.
sdtm-cdisc01:SDTM_SUPPDM_Record_4
  rdf:type sdtm:SDTM_SUPPDM_Record ;
  rdfs:comment ""^^xsd:string ;
  rdfs:label "SDTM SUPPDM Record 4"^^xsd:string ;
  skos:definition ""^^xsd:string ;
  sdtm:hasActivity <https://raw.githubusercontent.com/phuse-org/CTDasRDF/master/data/rdf/cdiscpilot01.ttl#PopFlagEff_1> ;
  sdtm:hasEntity <https://raw.githubusercontent.com/phuse-org/CTDasRDF/master/data/rdf/cdiscpilot01.ttl#Person_1> ;
.
sdtm-cdisc01:SDTM_SUPPDM_Record_5
  rdf:type sdtm:SDTM_SUPPDM_Record ;
  rdfs:comment ""^^xsd:string ;
  rdfs:label "SDTM SUPPDM Record 5"^^xsd:string ;
  skos:definition ""^^xsd:string ;
  sdtm:hasActivity <https://raw.githubusercontent.com/phuse-org/CTDasRDF/master/data/rdf/cdiscpilot01.ttl#PopFlagItt_1> ;
  sdtm:hasEntity <https://raw.githubusercontent.com/phuse-org/CTDasRDF/master/data/rdf/cdiscpilot01.ttl#Person_1> ;
.
sdtm-cdisc01:SDTM_SUPPDM_Record_6
  rdf:type sdtm:SDTM_SUPPDM_Record ;
  rdfs:comment ""^^xsd:string ;
  rdfs:label "SDTM SUPPDM Record 6"^^xsd:string ;
  skos:definition ""^^xsd:string ;
  sdtm:hasActivity <https://raw.githubusercontent.com/phuse-org/CTDasRDF/master/data/rdf/cdiscpilot01.ttl#PopFlagSaf_1> ;
  sdtm:hasEntity <https://raw.githubusercontent.com/phuse-org/CTDasRDF/master/data/rdf/cdiscpilot01.ttl#Person_1> ;
.
sdtm-cdisc01:SDTM_VS_Record_1
  rdf:type sdtm:SDTM_VS_Record ;
  rdfs:comment ""^^xsd:string ;
  rdfs:label "SDTM VS Record 1"^^xsd:string ;
  skos:definition ""^^xsd:string ;
  sdtm:hasActivity <https://raw.githubusercontent.com/phuse-org/CTDasRDF/master/data/rdf/cdiscpilot01.ttl#C67153.C25299_1> ;
  sdtm:hasEntity <https://raw.githubusercontent.com/phuse-org/CTDasRDF/master/data/rdf/cdiscpilot01.ttl#Person_1> ;
.
sdtm-cdisc01:SDTM_VS_Record_128
  rdf:type sdtm:SDTM_VS_Record ;
  rdfs:label "SDTM VS Record 128"^^xsd:string ;
  sdtm:hasActivity <https://raw.githubusercontent.com/phuse-org/CTDasRDF/master/data/rdf/cdiscpilot01.ttl#C67153.C25206_1> ;
  sdtm:hasEntity <https://raw.githubusercontent.com/phuse-org/CTDasRDF/master/data/rdf/cdiscpilot01.ttl#Person_1> ;
.
sdtm-cdisc01:SDTM_VS_Record_142
  rdf:type sdtm:SDTM_VS_Record ;
  rdfs:label "SDTM VS Record 142"^^xsd:string ;
  sdtm:hasActivity <https://raw.githubusercontent.com/phuse-org/CTDasRDF/master/data/rdf/cdiscpilot01.ttl#C67153.C25208_1> ;
  sdtm:hasEntity <https://raw.githubusercontent.com/phuse-org/CTDasRDF/master/data/rdf/cdiscpilot01.ttl#Person_1> ;
.
sdtm-cdisc01:SDTM_VS_Record_2
  rdf:type sdtm:SDTM_VS_Record ;
  rdfs:comment ""^^xsd:string ;
  rdfs:label "SDTM VS Record 2"^^xsd:string ;
  skos:definition ""^^xsd:string ;
  sdtm:hasActivity <https://raw.githubusercontent.com/phuse-org/CTDasRDF/master/data/rdf/cdiscpilot01.ttl#C67153.C25299_2> ;
  sdtm:hasEntity <https://raw.githubusercontent.com/phuse-org/CTDasRDF/master/data/rdf/cdiscpilot01.ttl#Person_1> ;
.
sdtm-cdisc01:SDTM_VS_Record_3
  rdf:type sdtm:SDTM_VS_Record ;
  rdfs:comment ""^^xsd:string ;
  rdfs:label "SDTM VS Record 3"^^xsd:string ;
  skos:definition ""^^xsd:string ;
  sdtm:hasActivity <https://raw.githubusercontent.com/phuse-org/CTDasRDF/master/data/rdf/cdiscpilot01.ttl#C67153.C25299_3> ;
  sdtm:hasEntity <https://raw.githubusercontent.com/phuse-org/CTDasRDF/master/data/rdf/cdiscpilot01.ttl#Person_1> ;
.
sdtm-cdisc01:SDTM_VS_Record_43
  rdf:type sdtm:SDTM_VS_Record ;
  rdfs:label "SDTM VS Record 43"^^xsd:string ;
  sdtm:hasActivity <https://raw.githubusercontent.com/phuse-org/CTDasRDF/master/data/rdf/cdiscpilot01.ttl#C67153.C25347_1> ;
  sdtm:hasEntity <https://raw.githubusercontent.com/phuse-org/CTDasRDF/master/data/rdf/cdiscpilot01.ttl#Person_1> ;
.
sdtm-cdisc01:SDTM_VS_Record_44
  rdf:type sdtm:SDTM_VS_Record ;
  rdfs:label "SDTM VS Record 44"^^xsd:string ;
  sdtm:hasActivity <https://raw.githubusercontent.com/phuse-org/CTDasRDF/master/data/rdf/cdiscpilot01.ttl#C67153.C49676_1> ;
  sdtm:hasEntity <https://raw.githubusercontent.com/phuse-org/CTDasRDF/master/data/rdf/cdiscpilot01.ttl#Person_1> ;
.
sdtm-cdisc01:SDTM_VS_Record_45
  rdf:type sdtm:SDTM_VS_Record ;
  rdfs:label "SDTM VS Record 45"^^xsd:string ;
  sdtm:hasActivity <https://raw.githubusercontent.com/phuse-org/CTDasRDF/master/data/rdf/cdiscpilot01.ttl#C67153.C49676_2> ;
  sdtm:hasEntity <https://raw.githubusercontent.com/phuse-org/CTDasRDF/master/data/rdf/cdiscpilot01.ttl#Person_1> ;
.
sdtm-cdisc01:SDTM_VS_Record_46
  rdf:type sdtm:SDTM_VS_Record ;
  rdfs:label "SDTM VS Record 46"^^xsd:string ;
  sdtm:hasActivity <https://raw.githubusercontent.com/phuse-org/CTDasRDF/master/data/rdf/cdiscpilot01.ttl#C67153.C49676_3> ;
  sdtm:hasEntity <https://raw.githubusercontent.com/phuse-org/CTDasRDF/master/data/rdf/cdiscpilot01.ttl#Person_1> ;
.
sdtm-cdisc01:SDTM_VS_Record_86
  rdf:type sdtm:SDTM_VS_Record ;
  rdfs:label "SDTM VS Record 86"^^xsd:string ;
  sdtm:hasActivity <https://raw.githubusercontent.com/phuse-org/CTDasRDF/master/data/rdf/cdiscpilot01.ttl#C67153.C25298_1> ;
  sdtm:hasEntity <https://raw.githubusercontent.com/phuse-org/CTDasRDF/master/data/rdf/cdiscpilot01.ttl#Person_1> ;
.
sdtm-cdisc01:SDTM_VS_Record_87
  rdf:type sdtm:SDTM_VS_Record ;
  rdfs:label "SDTM VS Record 87"^^xsd:string ;
  sdtm:hasActivity <https://raw.githubusercontent.com/phuse-org/CTDasRDF/master/data/rdf/cdiscpilot01.ttl#C67153.C25298_2> ;
  sdtm:hasEntity <https://raw.githubusercontent.com/phuse-org/CTDasRDF/master/data/rdf/cdiscpilot01.ttl#Person_1> ;
.
sdtm-cdisc01:SDTM_VS_Record_88
  rdf:type sdtm:SDTM_VS_Record ;
  rdfs:label "SDTM VS Record 88"^^xsd:string ;
  sdtm:hasActivity <https://raw.githubusercontent.com/phuse-org/CTDasRDF/master/data/rdf/cdiscpilot01.ttl#C67153.C25298_1> ;
  sdtm:hasEntity <https://raw.githubusercontent.com/phuse-org/CTDasRDF/master/data/rdf/cdiscpilot01.ttl#Person_1> ;
.
sdtm-cdisc01:SUPPDM_CDISCPILOT01
  rdf:type sdtm:SUPPDM_Domain ;
  rdfs:comment ""^^xsd:string ;
  rdfs:label "SUPPDM CDISCPILOT01"^^xsd:string ;
  skos:definition ""^^xsd:string ;
  sdtm:hasCode <https://raw.githubusercontent.com/phuse-org/CTDasRDF/master/data/rdf/sdtm.ttl#Dataset.SUPPDM> ;
  sdtm:hasRecord sdtm-cdisc01:SDTM_SUPPDM_Record_1 ;
  sdtm:hasRecord sdtm-cdisc01:SDTM_SUPPDM_Record_2 ;
  sdtm:hasRecord sdtm-cdisc01:SDTM_SUPPDM_Record_3 ;
  sdtm:hasRecord sdtm-cdisc01:SDTM_SUPPDM_Record_4 ;
  sdtm:hasRecord sdtm-cdisc01:SDTM_SUPPDM_Record_5 ;
  sdtm:hasRecord sdtm-cdisc01:SDTM_SUPPDM_Record_6 ;
.
sdtm-cdisc01:VS_CDISCPILOT01
  rdf:type sdtm:VS_Domain ;
  rdfs:comment ""^^xsd:string ;
  rdfs:label "VS CDISCPILOT01"^^xsd:string ;
  skos:definition ""^^xsd:string ;
  sdtm:hasCode <http://rdf.cdisc.org/std/sdtmig-3-1-3#Dataset.VS> ;
  sdtm:hasRecord sdtm-cdisc01:SDTM_VS_Record_1 ;
  sdtm:hasRecord sdtm-cdisc01:SDTM_VS_Record_2 ;
  sdtm:hasRecord sdtm-cdisc01:SDTM_VS_Record_3 ;
.
