# baseURI: http://www.semanticallc.com/swt/sdtm-cd01p
# imports: http://spinrdf.org/spl
# imports: http://www.w3.org/2004/02/skos/core
# imports: https://raw.githubusercontent.com/phuse-org/CTDasRDF/master/data/rdf/cdiscpilot01-protocol.ttl
# imports: https://raw.githubusercontent.com/phuse-org/CTDasRDF/master/data/rdf/sdtm.ttl

@prefix arg: <http://spinrdf.org/arg#> .
@prefix code: <https://raw.githubusercontent.com/phuse-org/CTDasRDF/master/data/rdf/code.ttl#> .
@prefix owl: <http://www.w3.org/2002/07/owl#> .
@prefix rdf: <http://www.w3.org/1999/02/22-rdf-syntax-ns#> .
@prefix rdfs: <http://www.w3.org/2000/01/rdf-schema#> .
@prefix sdtm: <https://raw.githubusercontent.com/phuse-org/CTDasRDF/master/data/rdf/sdtm.ttl#> .
@prefix sdtm-cd01p: <http://www.semanticallc.com/swt/sdtm-cd01p#> .
@prefix skos: <http://www.w3.org/2004/02/skos/core#> .
@prefix sp: <http://spinrdf.org/sp#> .
@prefix spin: <http://spinrdf.org/spin#> .
@prefix spl: <http://spinrdf.org/spl#> .
@prefix study: <https://raw.githubusercontent.com/phuse-org/CTDasRDF/master/data/rdf/study.ttl#> .
@prefix xsd: <http://www.w3.org/2001/XMLSchema#> .

<http://www.semanticallc.com/swt/sdtm-cd01p>
  rdf:type owl:Ontology ;
  owl:imports <http://spinrdf.org/spl> ;
  owl:imports <http://www.w3.org/2004/02/skos/core> ;
  owl:imports <https://raw.githubusercontent.com/phuse-org/CTDasRDF/master/data/rdf/cdiscpilot01-protocol.ttl> ;
  owl:imports <https://raw.githubusercontent.com/phuse-org/CTDasRDF/master/data/rdf/sdtm.ttl> ;
  owl:versionInfo "Created with TopBraid Composer"^^xsd:string ;
.
sdtm-cd01p:SDTMDefineRecord_DM_1
  rdf:type sdtm:SDTMDefineRecord_DM ;
  skos:prefLabel "SDTMDefine record DM 1"^^xsd:string ;
  sdtm:hasDFVariable <https://raw.githubusercontent.com/phuse-org/CTDasRDF/master/data/rdf/sdtmig-3-1-3.ttl#Column.DM.STUDYID> ;
.
sdtm-cd01p:SDTMDefineRecord_DM_10
  rdf:type sdtm:SDTMDefineRecord_DM ;
  skos:prefLabel "SDTMDefine record DM 1"^^xsd:string ;
  sdtm:hasDFVariable <https://raw.githubusercontent.com/phuse-org/CTDasRDF/master/data/rdf/sdtmig-3-1-3.ttl#Column.DM.RFPENDTC> ;
.
sdtm-cd01p:SDTMDefineRecord_DM_11
  rdf:type sdtm:SDTMDefineRecord_DM ;
  skos:prefLabel "SDTMDefine record DM 1"^^xsd:string ;
  sdtm:hasDFVariable <https://raw.githubusercontent.com/phuse-org/CTDasRDF/master/data/rdf/sdtmig-3-1-3.ttl#Column.DM.DTHDTC> ;
.
sdtm-cd01p:SDTMDefineRecord_DM_12
  rdf:type sdtm:SDTMDefineRecord_DM ;
  skos:prefLabel "SDTMDefine record DM 1"^^xsd:string ;
  sdtm:hasDFVariable <https://raw.githubusercontent.com/phuse-org/CTDasRDF/master/data/rdf/sdtmig-3-1-3.ttl#Column.DM.DTHFL> ;
.
sdtm-cd01p:SDTMDefineRecord_DM_13
  rdf:type sdtm:SDTMDefineRecord_DM ;
  skos:prefLabel "SDTMDefine record DM 1"^^xsd:string ;
  sdtm:hasDFVariable <https://raw.githubusercontent.com/phuse-org/CTDasRDF/master/data/rdf/sdtmig-3-1-3.ttl#Column.DM.SITEID> ;
.
sdtm-cd01p:SDTMDefineRecord_DM_14
  rdf:type sdtm:SDTMDefineRecord_DM ;
  skos:prefLabel "SDTMDefine record DM 1"^^xsd:string ;
  sdtm:hasDFVariable <https://raw.githubusercontent.com/phuse-org/CTDasRDF/master/data/rdf/sdtmig-3-1-3.ttl#Column.DM.AGE> ;
.
sdtm-cd01p:SDTMDefineRecord_DM_15
  rdf:type sdtm:SDTMDefineRecord_DM ;
  skos:prefLabel "SDTMDefine record DM 1"^^xsd:string ;
  sdtm:hasDFVariable <https://raw.githubusercontent.com/phuse-org/CTDasRDF/master/data/rdf/sdtmig-3-1-3.ttl#Column.DM.AGEU> ;
.
sdtm-cd01p:SDTMDefineRecord_DM_16
  rdf:type sdtm:SDTMDefineRecord_DM ;
  skos:prefLabel "SDTMDefine record DM 1"^^xsd:string ;
  sdtm:hasDFVariable <https://raw.githubusercontent.com/phuse-org/CTDasRDF/master/data/rdf/sdtmig-3-1-3.ttl#Column.DM.SEX> ;
.
sdtm-cd01p:SDTMDefineRecord_DM_17
  rdf:type sdtm:SDTMDefineRecord_DM ;
  skos:prefLabel "SDTMDefine record DM 1"^^xsd:string ;
  sdtm:hasDFVariable <https://raw.githubusercontent.com/phuse-org/CTDasRDF/master/data/rdf/sdtmig-3-1-3.ttl#Column.DM.RACE> ;
.
sdtm-cd01p:SDTMDefineRecord_DM_18
  rdf:type sdtm:SDTMDefineRecord_DM ;
  skos:prefLabel "SDTMDefine record DM 1"^^xsd:string ;
  sdtm:hasDFVariable <https://raw.githubusercontent.com/phuse-org/CTDasRDF/master/data/rdf/sdtmig-3-1-3.ttl#Column.DM.ETHNIC> ;
.
sdtm-cd01p:SDTMDefineRecord_DM_2
  rdf:type sdtm:SDTMDefineRecord_DM ;
  skos:prefLabel "SDTMDefine record DM "^^xsd:string ;
  sdtm:hasDFVariable <https://raw.githubusercontent.com/phuse-org/CTDasRDF/master/data/rdf/sdtmig-3-1-3.ttl#Column.DM.DOMAIN> ;
.
sdtm-cd01p:SDTMDefineRecord_DM_20
  rdf:type sdtm:SDTMDefineRecord_DM ;
  skos:prefLabel "SDTMDefine record DM 1"^^xsd:string ;
  sdtm:hasDFVariable <https://raw.githubusercontent.com/phuse-org/CTDasRDF/master/data/rdf/sdtmig-3-1-3.ttl#Column.DM.ARMCD> ;
.
sdtm-cd01p:SDTMDefineRecord_DM_21
  rdf:type sdtm:SDTMDefineRecord_DM ;
  skos:prefLabel "SDTMDefine record DM 1"^^xsd:string ;
  sdtm:hasDFVariable <https://raw.githubusercontent.com/phuse-org/CTDasRDF/master/data/rdf/sdtmig-3-1-3.ttl#Column.DM.ARM> ;
.
sdtm-cd01p:SDTMDefineRecord_DM_22
  rdf:type sdtm:SDTMDefineRecord_DM ;
  skos:prefLabel "SDTMDefine record DM 1"^^xsd:string ;
  sdtm:hasDFVariable <https://raw.githubusercontent.com/phuse-org/CTDasRDF/master/data/rdf/sdtmig-3-1-3.ttl#Column.DM.ACTARMCD> ;
.
sdtm-cd01p:SDTMDefineRecord_DM_23
  rdf:type sdtm:SDTMDefineRecord_DM ;
  skos:prefLabel "SDTMDefine record DM 1"^^xsd:string ;
  sdtm:hasDFVariable <https://raw.githubusercontent.com/phuse-org/CTDasRDF/master/data/rdf/sdtmig-3-1-3.ttl#Column.DM.ACTARM> ;
.
sdtm-cd01p:SDTMDefineRecord_DM_24
  rdf:type sdtm:SDTMDefineRecord_DM ;
  skos:prefLabel "SDTMDefine record DM 1"^^xsd:string ;
  sdtm:hasDFVariable <https://raw.githubusercontent.com/phuse-org/CTDasRDF/master/data/rdf/sdtmig-3-1-3.ttl#Column.DM.COUNTRY> ;
.
sdtm-cd01p:SDTMDefineRecord_DM_25
  rdf:type sdtm:SDTMDefineRecord_DM ;
  skos:prefLabel "SDTMDefine record DM 1"^^xsd:string ;
  sdtm:hasDFVariable <https://raw.githubusercontent.com/phuse-org/CTDasRDF/master/data/rdf/sdtmig-3-1-3.ttl#Column.DM.DMDTC> ;
.
sdtm-cd01p:SDTMDefineRecord_DM_26
  rdf:type sdtm:SDTMDefineRecord_DM ;
  skos:prefLabel "SDTMDefine record DM 1"^^xsd:string ;
  sdtm:hasDFVariable <https://raw.githubusercontent.com/phuse-org/CTDasRDF/master/data/rdf/sdtmig-3-1-3.ttl#Column.DM.DMDY> ;
.
sdtm-cd01p:SDTMDefineRecord_DM_3
  rdf:type sdtm:SDTMDefineRecord_DM ;
  skos:prefLabel "SDTMDefine record DM "^^xsd:string ;
  sdtm:hasDFVariable <https://raw.githubusercontent.com/phuse-org/CTDasRDF/master/data/rdf/sdtmig-3-1-3.ttl#Column.DM.USUBJID> ;
.
sdtm-cd01p:SDTMDefineRecord_DM_4
  rdf:type sdtm:SDTMDefineRecord_DM ;
  skos:prefLabel "SDTMDefine record DM 1"^^xsd:string ;
  sdtm:hasDFVariable <https://raw.githubusercontent.com/phuse-org/CTDasRDF/master/data/rdf/sdtmig-3-1-3.ttl#Column.DM.SUBJID> ;
.
sdtm-cd01p:SDTMDefineRecord_DM_5
  rdf:type sdtm:SDTMDefineRecord_DM ;
  skos:prefLabel "SDTMDefine record DM 1"^^xsd:string ;
  sdtm:hasDFVariable <https://raw.githubusercontent.com/phuse-org/CTDasRDF/master/data/rdf/sdtmig-3-1-3.ttl#Column.DM.RFSTDTC> ;
.
sdtm-cd01p:SDTMDefineRecord_DM_6
  rdf:type sdtm:SDTMDefineRecord_DM ;
  skos:prefLabel "SDTMDefine record DM 1"^^xsd:string ;
  sdtm:hasDFVariable <https://raw.githubusercontent.com/phuse-org/CTDasRDF/master/data/rdf/sdtmig-3-1-3.ttl#Column.DM.RFENDTC> ;
.
sdtm-cd01p:SDTMDefineRecord_DM_7
  rdf:type sdtm:SDTMDefineRecord_DM ;
  skos:prefLabel "SDTMDefine record DM 1"^^xsd:string ;
  sdtm:hasDFVariable <https://raw.githubusercontent.com/phuse-org/CTDasRDF/master/data/rdf/sdtmig-3-1-3.ttl#Column.DM.RFXSTDTC> ;
.
sdtm-cd01p:SDTMDefineRecord_DM_8
  rdf:type sdtm:SDTMDefineRecord_DM ;
  skos:prefLabel "SDTMDefine record DM 1"^^xsd:string ;
  sdtm:hasDFVariable <https://raw.githubusercontent.com/phuse-org/CTDasRDF/master/data/rdf/sdtmig-3-1-3.ttl#Column.DM.RFXENDTC> ;
.
sdtm-cd01p:SDTMDefineRecord_DM_9
  rdf:type sdtm:SDTMDefineRecord_DM ;
  skos:prefLabel "SDTMDefine record DM 1"^^xsd:string ;
  sdtm:hasDFVariable <https://raw.githubusercontent.com/phuse-org/CTDasRDF/master/data/rdf/sdtmig-3-1-3.ttl#Column.DM.RFICDTC> ;
.
code:InformedConsentOutcome_1
  rdf:type study:InformedConsentOutcome ;
.
code:InformedConsentOutcome_2
  rdf:type study:InformedConsentOutcome ;
.
code:InformedConsentOutcome_3
  rdf:type study:InformedConsentOutcome ;
.
code:RandomizationBAL3
  owl:equivalentClass [
      rdf:type owl:Restriction ;
      owl:allValuesFrom study:RandomizationOutcome ;
      owl:onProperty study:outcome ;
    ] ;
.
code:hasValueSet
  rdf:type owl:ObjectProperty ;
  skos:prefLabel "has value set"^^xsd:string ;
.
<https://raw.githubusercontent.com/phuse-org/CTDasRDF/master/data/rdf/sdtmig-3-1-3.ttl#Column.DM.ACTARM>
  code:hasMethod code:ActivityMethod_2 ;
  sdtm:hasDFComment "Derived from EX"^^xsd:string ;
.
<https://raw.githubusercontent.com/phuse-org/CTDasRDF/master/data/rdf/sdtmig-3-1-3.ttl#Column.DM.ACTARMCD>
  code:hasMethod code:ActivityMethod_2 ;
  sdtm:hasDFComment "Derived from EX"^^xsd:string ;
.
<https://raw.githubusercontent.com/phuse-org/CTDasRDF/master/data/rdf/sdtmig-3-1-3.ttl#Column.DM.AGE>
  code:hasMethod code:ActivityMethod_2 ;
  sdtm:hasDFComment "Subject's Age at start of study drug (RFSTDTC). "^^xsd:string ;
.
<https://raw.githubusercontent.com/phuse-org/CTDasRDF/master/data/rdf/sdtmig-3-1-3.ttl#Column.DM.AGEU>
  code:hasMethod code:ActivityMethod_3 ;
  sdtm:hasDFComment "AGEU=\"YEARS\" "^^xsd:string ;
.
<https://raw.githubusercontent.com/phuse-org/CTDasRDF/master/data/rdf/sdtmig-3-1-3.ttl#Column.DM.ARM>
  code:hasMethod code:ActivityMethod_3 ;
  sdtm:hasDFComment "According to randomization list "^^xsd:string ;
.
<https://raw.githubusercontent.com/phuse-org/CTDasRDF/master/data/rdf/sdtmig-3-1-3.ttl#Column.DM.ARMCD>
  code:hasMethod code:ActivityMethod_3 ;
  sdtm:hasDFComment "According to randomization list "^^xsd:string ;
.
<https://raw.githubusercontent.com/phuse-org/CTDasRDF/master/data/rdf/sdtmig-3-1-3.ttl#Column.DM.COUNTRY>
  code:hasMethod code:ActivityMethod_2 ;
  sdtm:hasDFComment "Derived from site information "^^xsd:string ;
.
<https://raw.githubusercontent.com/phuse-org/CTDasRDF/master/data/rdf/sdtmig-3-1-3.ttl#Column.DM.DMDTC>
  code:hasMethod code:ActivityMethod_1 ;
  study:crfLocation <https://raw.githubusercontent.com/phuse-org/CTDasRDF/master/data/rdf/cdiscpilot01-protocol.ttl#CRFLocation_1> ;
.
<https://raw.githubusercontent.com/phuse-org/CTDasRDF/master/data/rdf/sdtmig-3-1-3.ttl#Column.DM.DMDY>
  code:hasMethod code:ActivityMethod_2 ;
  sdtm:hasDFComment "See Computational Method: COMPMETHOD.STUDY_DAY"^^xsd:string ;
.
<https://raw.githubusercontent.com/phuse-org/CTDasRDF/master/data/rdf/sdtmig-3-1-3.ttl#Column.DM.DOMAIN>
  code:hasMethod code:ActivityMethod_3 ;
.
<https://raw.githubusercontent.com/phuse-org/CTDasRDF/master/data/rdf/sdtmig-3-1-3.ttl#Column.DM.DTHDTC>
  code:hasMethod code:ActivityMethod_2 ;
  sdtm:hasDFComment "If DS record exists with DSDECOD=\"DEATH\" then DTHDTC=AEENDTC."^^xsd:string ;
.
<https://raw.githubusercontent.com/phuse-org/CTDasRDF/master/data/rdf/sdtmig-3-1-3.ttl#Column.DM.DTHFL>
  code:hasMethod code:ActivityMethod_2 ;
  sdtm:hasDFComment "If DS record exists with DSDECOD=\"DEATH\" then DEATHFL=Y."^^xsd:string ;
.
<https://raw.githubusercontent.com/phuse-org/CTDasRDF/master/data/rdf/sdtmig-3-1-3.ttl#Column.DM.ETHNIC>
  code:hasMethod code:ActivityMethod_2 ;
  sdtm:hasDFComment "Derived from Origin entered on CRF: ETHINC=\"HISPANIC OR LATINO\" if Origin=\"Hispanic\". Otherwise ETHNIC=\"NOT HISPANIC OR LATINO\""^^xsd:string ;
.
<https://raw.githubusercontent.com/phuse-org/CTDasRDF/master/data/rdf/sdtmig-3-1-3.ttl#Column.DM.RACE>
  code:hasMethod code:ActivityMethod_1 ;
  study:crfLocation <https://raw.githubusercontent.com/phuse-org/CTDasRDF/master/data/rdf/cdiscpilot01-protocol.ttl#CRFLocation_1> ;
.
<https://raw.githubusercontent.com/phuse-org/CTDasRDF/master/data/rdf/sdtmig-3-1-3.ttl#Column.DM.RFENDTC>
  sdtm:hasDFComment "Date/time of last study drug treatment derived from EX "^^xsd:string ;
.
<https://raw.githubusercontent.com/phuse-org/CTDasRDF/master/data/rdf/sdtmig-3-1-3.ttl#Column.DM.RFICDTC>
  code:hasMethod code:ActivityMethod_2 ;
  sdtm:hasDFComment "Date of informed consent was not entered in database (see annotated CRF)"^^xsd:string ;
.
<https://raw.githubusercontent.com/phuse-org/CTDasRDF/master/data/rdf/sdtmig-3-1-3.ttl#Column.DM.RFPENDTC>
  sdtm:hasDFComment "DSSTDTC of last disposition event "^^xsd:string ;
.
<https://raw.githubusercontent.com/phuse-org/CTDasRDF/master/data/rdf/sdtmig-3-1-3.ttl#Column.DM.RFSTDTC>
  sdtm:hasDFComment "Date/time of first study drug treatment derived from EX "^^xsd:string ;
.
<https://raw.githubusercontent.com/phuse-org/CTDasRDF/master/data/rdf/sdtmig-3-1-3.ttl#Column.DM.RFXENDTC>
  sdtm:hasDFComment "RFXENDTC=RFENDTC "^^xsd:string ;
.
<https://raw.githubusercontent.com/phuse-org/CTDasRDF/master/data/rdf/sdtmig-3-1-3.ttl#Column.DM.RFXSTDTC>
  sdtm:hasDFComment "RFXSTDTC=RFSTDTC "^^xsd:string ;
.
<https://raw.githubusercontent.com/phuse-org/CTDasRDF/master/data/rdf/sdtmig-3-1-3.ttl#Column.DM.SEX>
  code:hasMethod code:ActivityMethod_1 ;
  study:crfLocation <https://raw.githubusercontent.com/phuse-org/CTDasRDF/master/data/rdf/cdiscpilot01-protocol.ttl#CRFLocation_1> ;
.
<https://raw.githubusercontent.com/phuse-org/CTDasRDF/master/data/rdf/sdtmig-3-1-3.ttl#Column.DM.SITEID>
  code:hasMethod code:ActivityMethod_3 ;
.
<https://raw.githubusercontent.com/phuse-org/CTDasRDF/master/data/rdf/sdtmig-3-1-3.ttl#Column.DM.STUDYID>
  code:hasMethod code:ActivityMethod_3 ;
  study:crfLocation <https://raw.githubusercontent.com/phuse-org/CTDasRDF/master/data/rdf/cdiscpilot01-protocol.ttl#CRFLocation_1> ;
.
<https://raw.githubusercontent.com/phuse-org/CTDasRDF/master/data/rdf/sdtmig-3-1-3.ttl#Column.DM.SUBJID>
  code:hasMethod code:ActivityMethod_3 ;
  study:crfLocation <https://raw.githubusercontent.com/phuse-org/CTDasRDF/master/data/rdf/cdiscpilot01-protocol.ttl#CRFLocation_1> ;
.
<https://raw.githubusercontent.com/phuse-org/CTDasRDF/master/data/rdf/sdtmig-3-1-3.ttl#Column.DM.USUBJID>
  code:hasMethod code:ActivityMethod_2 ;
  sdtm:hasDFComment "Concatenation of STUDYID, DM.SITEID and DM.SUBJID "^^xsd:string ;
.
