# baseURI: https://raw.githubusercontent.com/phuse-org/CTDasRDF/master/data/rdf/sdtm-1-3.ttl
# imports: https://raw.githubusercontent.com/phuse-org/CTDasRDF/master/data/rdf/ct-schema.rdf

@prefix cdiscs: <https://raw.githubusercontent.com/phuse-org/CTDasRDF/master/data/rdf/ct-schema.rdf#> .
@prefix dc: <http://purl.org/dc/elements/1.1/> .
@prefix mms: <https://raw.githubusercontent.com/phuse-org/CTDasRDF/master/data/rdf/meta-model-schema.rdf#> .
@prefix owl: <http://www.w3.org/2002/07/owl#> .
@prefix rdf: <http://www.w3.org/1999/02/22-rdf-syntax-ns#> .
@prefix rdfs: <http://www.w3.org/2000/01/rdf-schema#> .
@prefix sdtm-1-3: <https://raw.githubusercontent.com/phuse-org/CTDasRDF/master/data/rdf/sdtm-1-3.ttl#> .
@prefix sdtms-1-3: <http://rdf.cdisc.org/sdtm-1-3/schema#> .
@prefix skos: <http://www.w3.org/2004/02/skos/core#> .
@prefix xsd: <http://www.w3.org/2001/XMLSchema#> .

<https://raw.githubusercontent.com/phuse-org/CTDasRDF/master/data/rdf/sdtm-1-3.ttl>
  rdf:type owl:Ontology ;
  dc:creator "FDA/PhUSE CSS Semantic Technology Project"^^xsd:string ;
  owl:imports <https://raw.githubusercontent.com/phuse-org/CTDasRDF/master/data/rdf/ct-schema.rdf> ;
  owl:versionInfo "1.3"^^xsd:string ;
  skos:definition "An ontology representing the content of the Study Data Tabulation Model (SDTM) Version 1.3 as published by CDISC."^^xsd:string ;
  skos:prefLabel "CDISC SDTM Standard 1.3"^^xsd:string ;
.
<https://raw.githubusercontent.com/phuse-org/CTDasRDF/master/data/rdf/sdtm-1-3.ttl#Classifier.ExpectedVariable>
  rdf:type cdiscs:DataElementCompliance ;
  rdfs:label "Expected Variable"^^xsd:string ;
  skos:definition "An Expected variable is any variable necessary to make a record useful in the context of a specific domain. Expected variables may contain some null values, but in most cases will not contain null values for every record. When no data has been collected for an expected variable, however, a null column should still be included in the dataset, and a comment should be included in the define.xml to state that data was not collected."^^xsd:string ;
.
<https://raw.githubusercontent.com/phuse-org/CTDasRDF/master/data/rdf/sdtm-1-3.ttl#Classifier.GroupingQualifier>
  rdf:type cdiscs:DataElementRole ;
  rdfs:label "Grouping Qualifier"^^xsd:string ;
  skos:definition "Grouping Qualifiers are used to group together a collection of observations within the same domain. Examples include --CAT and --SCAT."^^xsd:string ;
.
<https://raw.githubusercontent.com/phuse-org/CTDasRDF/master/data/rdf/sdtm-1-3.ttl#Classifier.IdentifierVariable>
  rdf:type cdiscs:DataElementRole ;
  rdfs:label "Identifier Variable"^^xsd:string ;
  skos:definition "Identifier variables, such as those that identify the study, subject, domain, and sequence number of the record."^^xsd:string ;
.
<https://raw.githubusercontent.com/phuse-org/CTDasRDF/master/data/rdf/sdtm-1-3.ttl#Classifier.PermissibleVariable>
  rdf:type cdiscs:DataElementCompliance ;
  rdfs:label "Permissible Variable"^^xsd:string ;
  skos:definition "A Permissible variable should be used in a domain as appropriate when collected or derived. Except where restricted by specific domain assumptions, any SDTM Timing and Identifier variables, and any Qualifier variables from the same general observation class are permissible for use in a domain based on that general observation class. The Sponsor can decide whether a Permissible variable should be included as a column when all values for that variable are null. The sponsor does not have the discretion to not submit permissible variables when they contain data."^^xsd:string ;
.
<https://raw.githubusercontent.com/phuse-org/CTDasRDF/master/data/rdf/sdtm-1-3.ttl#Classifier.RecordQualifier>
  rdf:type cdiscs:DataElementRole ;
  rdfs:label "Record Qualifier"^^xsd:string ;
  skos:definition "Record Qualifiers define additional attributes of the observation record as a whole (rather than describing a particular variable within a record). Examples include --REASND, AESLIFE, and all other SAE flag variables in the AE domain; AGE, SEX, and RACE in the DM domain; and --BLFL, --POS, --LOC, --SPEC and --NAM in a Findings domain."^^xsd:string ;
.
<https://raw.githubusercontent.com/phuse-org/CTDasRDF/master/data/rdf/sdtm-1-3.ttl#Classifier.RequiredVariable>
  rdf:type cdiscs:DataElementCompliance ;
  rdfs:label "Required Variable"^^xsd:string ;
  skos:definition "A Required variable is any variable that is basic to the identification of a data record (i.e., essential key variables and a topic variable) or is necessary to make the record meaningful. Required variables must always be included in the dataset and cannot be null for any record."^^xsd:string ;
.
<https://raw.githubusercontent.com/phuse-org/CTDasRDF/master/data/rdf/sdtm-1-3.ttl#Classifier.ResultQualifier>
  rdf:type cdiscs:DataElementRole ;
  rdfs:label "Result Qualifier"^^xsd:string ;
  skos:definition "Result Qualifiers describe the specific results associated with the topic variable in a Findings dataset. They answer the question raised by the topic variable. Result Qualifiers are --ORRES, --STRESC, and --STRESN."^^xsd:string ;
.
<https://raw.githubusercontent.com/phuse-org/CTDasRDF/master/data/rdf/sdtm-1-3.ttl#Classifier.RuleVariable>
  rdf:type cdiscs:DataElementRole ;
  rdfs:label "Rule Variable"^^xsd:string ;
  skos:definition "Rule variables, which express an algorithm or executable method to define start, end, and branching or looping conditions in the Trial Design model."^^xsd:string ;
.
<https://raw.githubusercontent.com/phuse-org/CTDasRDF/master/data/rdf/sdtm-1-3.ttl#Classifier.SynonymQualifier>
  rdf:type cdiscs:DataElementRole ;
  rdfs:label "Synonym Qualifier"^^xsd:string ;
  skos:definition "Synonym Qualifiers specify an alternative name for a particular variable in an observation. Examples include --MODIFY and --DECOD, which are equivalent terms for a --TRT or --TERM topic variable, --TEST and --LOINC which are equivalent terms for a --TESTCD."^^xsd:string ;
.
<https://raw.githubusercontent.com/phuse-org/CTDasRDF/master/data/rdf/sdtm-1-3.ttl#Classifier.TimingVariable>
  rdf:type cdiscs:DataElementRole ;
  rdfs:label "Timing Variable"^^xsd:string ;
  skos:definition "Timing variables, which describe the timing of the observation (such as start date and end date)."^^xsd:string ;
.
<https://raw.githubusercontent.com/phuse-org/CTDasRDF/master/data/rdf/sdtm-1-3.ttl#Classifier.TopicVariable>
  rdf:type cdiscs:DataElementRole ;
  rdfs:label "Topic Variable"^^xsd:string ;
  skos:definition "Topic variables, which specify the focus of the observation (such as the name of a lab test)."^^xsd:string ;
.
<https://raw.githubusercontent.com/phuse-org/CTDasRDF/master/data/rdf/sdtm-1-3.ttl#Classifier.VariableQualifier>
  rdf:type cdiscs:DataElementRole ;
  rdfs:label "Variable Qualifier"^^xsd:string ;
  skos:definition "Variable Qualifiers are used to further modify or describe a specific variable within an observation and are only meaningful in the context of the variable they qualify. Examples include --ORRESU, --ORNRHI, and --ORNRLO, all of which are Variable Qualifiers of --ORRES; and --DOSU, which is a Variable Qualifier of --DOSE."^^xsd:string ;
.
<https://raw.githubusercontent.com/phuse-org/CTDasRDF/master/data/rdf/sdtm-1-3.ttl#DataElement.Event.--ACN>
  rdf:type <http://rdf.cdisc.org/mms#DataElement> ;
  <http://rdf.cdisc.org/mms#context> sdtm-1-3:EventVariables ;
  <http://rdf.cdisc.org/mms#dataElementDescription> "Describes changes made to the study treatment as a result of the event. Examples: DOSE INCREASED, DOSE NOT CHANGED."^^xsd:string ;
  <http://rdf.cdisc.org/mms#dataElementLabel> "Action Taken with Study Treatment"^^xsd:string ;
  <http://rdf.cdisc.org/mms#dataElementName> "--ACN"^^xsd:string ;
  <http://rdf.cdisc.org/mms#dataElementType> "xsd:string"^^xsd:anySimpleType ;
  <http://rdf.cdisc.org/mms#ordinal> "24"^^xsd:positiveInteger ;
  cdiscs:dataElementRole <https://raw.githubusercontent.com/phuse-org/CTDasRDF/master/data/rdf/sdtm-1-3.ttl#Classifier.RecordQualifier> ;
  cdiscs:dataElementType <https://raw.githubusercontent.com/phuse-org/CTDasRDF/master/data/rdf/ct-schema.rdf#Classifier.Character> ;
  cdiscs:supportedBySDTMIG "true"^^xsd:boolean ;
  cdiscs:supportedBySEND "true"^^xsd:boolean ;
.
<https://raw.githubusercontent.com/phuse-org/CTDasRDF/master/data/rdf/sdtm-1-3.ttl#DataElement.Event.--ACNOTH>
  rdf:type <http://rdf.cdisc.org/mms#DataElement> ;
  <http://rdf.cdisc.org/mms#context> sdtm-1-3:EventVariables ;
  <http://rdf.cdisc.org/mms#dataElementDescription> "Describes other actions taken as a result of the event that are unrelated to dose adjustments of study treatment."^^xsd:string ;
  <http://rdf.cdisc.org/mms#dataElementLabel> "Other Action Taken"^^xsd:string ;
  <http://rdf.cdisc.org/mms#dataElementName> "--ACNOTH"^^xsd:string ;
  <http://rdf.cdisc.org/mms#dataElementType> "xsd:string"^^xsd:anySimpleType ;
  <http://rdf.cdisc.org/mms#ordinal> "25"^^xsd:positiveInteger ;
  cdiscs:dataElementRole <https://raw.githubusercontent.com/phuse-org/CTDasRDF/master/data/rdf/sdtm-1-3.ttl#Classifier.RecordQualifier> ;
  cdiscs:dataElementType <https://raw.githubusercontent.com/phuse-org/CTDasRDF/master/data/rdf/ct-schema.rdf#Classifier.Character> ;
  cdiscs:supportedBySDTMIG "true"^^xsd:boolean ;
  cdiscs:supportedBySEND "true"^^xsd:boolean ;
.
<https://raw.githubusercontent.com/phuse-org/CTDasRDF/master/data/rdf/sdtm-1-3.ttl#DataElement.Event.--BDSYCD>
  rdf:type <http://rdf.cdisc.org/mms#DataElement> ;
  <http://rdf.cdisc.org/mms#context> sdtm-1-3:EventVariables ;
  <http://rdf.cdisc.org/mms#dataElementDescription> "MedDRA System Organ Class code corresponding to --BODSYS assigned for analysis."^^xsd:string ;
  <http://rdf.cdisc.org/mms#dataElementLabel> "Body System or Organ Class Code"^^xsd:string ;
  <http://rdf.cdisc.org/mms#dataElementName> "--BDSYCD"^^xsd:string ;
  <http://rdf.cdisc.org/mms#dataElementType> "xsd:positiveInteger"^^xsd:anySimpleType ;
  <http://rdf.cdisc.org/mms#ordinal> "18"^^xsd:positiveInteger ;
  cdiscs:dataElementRole <https://raw.githubusercontent.com/phuse-org/CTDasRDF/master/data/rdf/sdtm-1-3.ttl#Classifier.VariableQualifier> ;
  cdiscs:dataElementType <https://raw.githubusercontent.com/phuse-org/CTDasRDF/master/data/rdf/ct-schema.rdf#Classifier.Numeric> ;
  cdiscs:qualifies <https://raw.githubusercontent.com/phuse-org/CTDasRDF/master/data/rdf/sdtm-1-3.ttl#DataElement.Event.--BODSYS> ;
  cdiscs:supportedBySDTMIG "true"^^xsd:boolean ;
  cdiscs:supportedBySEND "true"^^xsd:boolean ;
.
<https://raw.githubusercontent.com/phuse-org/CTDasRDF/master/data/rdf/sdtm-1-3.ttl#DataElement.Event.--BODSYS>
  rdf:type <http://rdf.cdisc.org/mms#DataElement> ;
  <http://rdf.cdisc.org/mms#context> sdtm-1-3:EventVariables ;
  <http://rdf.cdisc.org/mms#dataElementDescription> "Body system or system organ class from a standard hierarchy (e.g. MedDRA) associated with an event. Example: GASTROINTESTINAL DISORDERS."^^xsd:string ;
  <http://rdf.cdisc.org/mms#dataElementLabel> "Body System or Organ Class"^^xsd:string ;
  <http://rdf.cdisc.org/mms#dataElementName> "--BODSYS"^^xsd:string ;
  <http://rdf.cdisc.org/mms#dataElementType> "xsd:string"^^xsd:anySimpleType ;
  <http://rdf.cdisc.org/mms#ordinal> "17"^^xsd:positiveInteger ;
  cdiscs:dataElementRole <https://raw.githubusercontent.com/phuse-org/CTDasRDF/master/data/rdf/sdtm-1-3.ttl#Classifier.RecordQualifier> ;
  cdiscs:dataElementType <https://raw.githubusercontent.com/phuse-org/CTDasRDF/master/data/rdf/ct-schema.rdf#Classifier.Character> ;
  cdiscs:supportedBySDTMIG "true"^^xsd:boolean ;
  cdiscs:supportedBySEND "true"^^xsd:boolean ;
.
<https://raw.githubusercontent.com/phuse-org/CTDasRDF/master/data/rdf/sdtm-1-3.ttl#DataElement.Event.--CAT>
  rdf:type <http://rdf.cdisc.org/mms#DataElement> ;
  <http://rdf.cdisc.org/mms#context> sdtm-1-3:EventVariables ;
  <http://rdf.cdisc.org/mms#dataElementDescription> "Used to define a category of topic-variable values."^^xsd:string ;
  <http://rdf.cdisc.org/mms#dataElementLabel> "Category"^^xsd:string ;
  <http://rdf.cdisc.org/mms#dataElementName> "--CAT"^^xsd:string ;
  <http://rdf.cdisc.org/mms#dataElementType> "xsd:string"^^xsd:anySimpleType ;
  <http://rdf.cdisc.org/mms#ordinal> "11"^^xsd:positiveInteger ;
  cdiscs:dataElementRole <https://raw.githubusercontent.com/phuse-org/CTDasRDF/master/data/rdf/sdtm-1-3.ttl#Classifier.GroupingQualifier> ;
  cdiscs:dataElementType <https://raw.githubusercontent.com/phuse-org/CTDasRDF/master/data/rdf/ct-schema.rdf#Classifier.Character> ;
  cdiscs:supportedBySDTMIG "true"^^xsd:boolean ;
  cdiscs:supportedBySEND "true"^^xsd:boolean ;
.
<https://raw.githubusercontent.com/phuse-org/CTDasRDF/master/data/rdf/sdtm-1-3.ttl#DataElement.Event.--CONTRT>
  rdf:type <http://rdf.cdisc.org/mms#DataElement> ;
  <http://rdf.cdisc.org/mms#context> sdtm-1-3:EventVariables ;
  <http://rdf.cdisc.org/mms#dataElementDescription> "Was another treatment given because of the occurrence of the event? Valid values are \"Y\" and \"N\"."^^xsd:string ;
  <http://rdf.cdisc.org/mms#dataElementLabel> "Concomitant or Additional Trtmnt Given"^^xsd:string ;
  <http://rdf.cdisc.org/mms#dataElementName> "--CONTRT"^^xsd:string ;
  <http://rdf.cdisc.org/mms#dataElementType> "xsd:string"^^xsd:anySimpleType ;
  <http://rdf.cdisc.org/mms#ordinal> "38"^^xsd:positiveInteger ;
  cdiscs:dataElementRole <https://raw.githubusercontent.com/phuse-org/CTDasRDF/master/data/rdf/sdtm-1-3.ttl#Classifier.RecordQualifier> ;
  cdiscs:dataElementType <https://raw.githubusercontent.com/phuse-org/CTDasRDF/master/data/rdf/ct-schema.rdf#Classifier.Character> ;
  cdiscs:supportedBySDTMIG "true"^^xsd:boolean ;
  cdiscs:supportedBySEND "true"^^xsd:boolean ;
.
<https://raw.githubusercontent.com/phuse-org/CTDasRDF/master/data/rdf/sdtm-1-3.ttl#DataElement.Event.--DECOD>
  rdf:type <http://rdf.cdisc.org/mms#DataElement> ;
  <http://rdf.cdisc.org/mms#context> sdtm-1-3:EventVariables ;
  <http://rdf.cdisc.org/mms#dataElementDescription> "Dictionary or sponsor-defined derived text description of the topic variable, --TERM, or the modified topic variable (--MODIFY), if applicable. Equivalent to the Preferred Term (PT in MedDRA)."^^xsd:string ;
  <http://rdf.cdisc.org/mms#dataElementLabel> "Dictionary-Derived Term"^^xsd:string ;
  <http://rdf.cdisc.org/mms#dataElementName> "--DECOD"^^xsd:string ;
  <http://rdf.cdisc.org/mms#dataElementType> "xsd:string"^^xsd:anySimpleType ;
  <http://rdf.cdisc.org/mms#ordinal> "5"^^xsd:positiveInteger ;
  cdiscs:dataElementRole <https://raw.githubusercontent.com/phuse-org/CTDasRDF/master/data/rdf/sdtm-1-3.ttl#Classifier.SynonymQualifier> ;
  cdiscs:dataElementType <https://raw.githubusercontent.com/phuse-org/CTDasRDF/master/data/rdf/ct-schema.rdf#Classifier.Character> ;
  cdiscs:qualifies <https://raw.githubusercontent.com/phuse-org/CTDasRDF/master/data/rdf/sdtm-1-3.ttl#DataElement.Event.--TERM> ;
  cdiscs:supportedBySDTMIG "true"^^xsd:boolean ;
  cdiscs:supportedBySEND "true"^^xsd:boolean ;
.
<https://raw.githubusercontent.com/phuse-org/CTDasRDF/master/data/rdf/sdtm-1-3.ttl#DataElement.Event.--HLGT>
  rdf:type <http://rdf.cdisc.org/mms#DataElement> ;
  <http://rdf.cdisc.org/mms#context> sdtm-1-3:EventVariables ;
  <http://rdf.cdisc.org/mms#dataElementDescription> "MedDRA High Level Group Term from the primary path."^^xsd:string ;
  <http://rdf.cdisc.org/mms#dataElementLabel> "High Level Group Term"^^xsd:string ;
  <http://rdf.cdisc.org/mms#dataElementName> "--HLGT"^^xsd:string ;
  <http://rdf.cdisc.org/mms#dataElementType> "xsd:string"^^xsd:anySimpleType ;
  <http://rdf.cdisc.org/mms#ordinal> "9"^^xsd:positiveInteger ;
  cdiscs:dataElementRole <https://raw.githubusercontent.com/phuse-org/CTDasRDF/master/data/rdf/sdtm-1-3.ttl#Classifier.VariableQualifier> ;
  cdiscs:dataElementType <https://raw.githubusercontent.com/phuse-org/CTDasRDF/master/data/rdf/ct-schema.rdf#Classifier.Character> ;
  cdiscs:qualifies <https://raw.githubusercontent.com/phuse-org/CTDasRDF/master/data/rdf/sdtm-1-3.ttl#DataElement.Event.--TERM> ;
  cdiscs:supportedBySDTMIG "true"^^xsd:boolean ;
  cdiscs:supportedBySEND "true"^^xsd:boolean ;
.
<https://raw.githubusercontent.com/phuse-org/CTDasRDF/master/data/rdf/sdtm-1-3.ttl#DataElement.Event.--HLGTCD>
  rdf:type <http://rdf.cdisc.org/mms#DataElement> ;
  <http://rdf.cdisc.org/mms#context> sdtm-1-3:EventVariables ;
  <http://rdf.cdisc.org/mms#dataElementDescription> "MedDRA High Level Group Term code from the primary path."^^xsd:string ;
  <http://rdf.cdisc.org/mms#dataElementLabel> "High Level Group Term Code"^^xsd:string ;
  <http://rdf.cdisc.org/mms#dataElementName> "--HLGTCD"^^xsd:string ;
  <http://rdf.cdisc.org/mms#dataElementType> "xsd:positiveInteger"^^xsd:anySimpleType ;
  <http://rdf.cdisc.org/mms#ordinal> "10"^^xsd:positiveInteger ;
  cdiscs:dataElementRole <https://raw.githubusercontent.com/phuse-org/CTDasRDF/master/data/rdf/sdtm-1-3.ttl#Classifier.VariableQualifier> ;
  cdiscs:dataElementType <https://raw.githubusercontent.com/phuse-org/CTDasRDF/master/data/rdf/ct-schema.rdf#Classifier.Numeric> ;
  cdiscs:qualifies <https://raw.githubusercontent.com/phuse-org/CTDasRDF/master/data/rdf/sdtm-1-3.ttl#DataElement.Event.--HLGT> ;
  cdiscs:supportedBySDTMIG "true"^^xsd:boolean ;
  cdiscs:supportedBySEND "true"^^xsd:boolean ;
.
<https://raw.githubusercontent.com/phuse-org/CTDasRDF/master/data/rdf/sdtm-1-3.ttl#DataElement.Event.--HLT>
  rdf:type <http://rdf.cdisc.org/mms#DataElement> ;
  <http://rdf.cdisc.org/mms#context> sdtm-1-3:EventVariables ;
  <http://rdf.cdisc.org/mms#dataElementDescription> "MedDRA High Level Term from the primary path."^^xsd:string ;
  <http://rdf.cdisc.org/mms#dataElementLabel> "High Level Term"^^xsd:string ;
  <http://rdf.cdisc.org/mms#dataElementName> "--HLT"^^xsd:string ;
  <http://rdf.cdisc.org/mms#dataElementType> "xsd:string"^^xsd:anySimpleType ;
  <http://rdf.cdisc.org/mms#ordinal> "7"^^xsd:positiveInteger ;
  cdiscs:dataElementRole <https://raw.githubusercontent.com/phuse-org/CTDasRDF/master/data/rdf/sdtm-1-3.ttl#Classifier.VariableQualifier> ;
  cdiscs:dataElementType <https://raw.githubusercontent.com/phuse-org/CTDasRDF/master/data/rdf/ct-schema.rdf#Classifier.Character> ;
  cdiscs:qualifies <https://raw.githubusercontent.com/phuse-org/CTDasRDF/master/data/rdf/sdtm-1-3.ttl#DataElement.Event.--TERM> ;
  cdiscs:supportedBySDTMIG "true"^^xsd:boolean ;
  cdiscs:supportedBySEND "true"^^xsd:boolean ;
.
<https://raw.githubusercontent.com/phuse-org/CTDasRDF/master/data/rdf/sdtm-1-3.ttl#DataElement.Event.--HLTCD>
  rdf:type <http://rdf.cdisc.org/mms#DataElement> ;
  <http://rdf.cdisc.org/mms#context> sdtm-1-3:EventVariables ;
  <http://rdf.cdisc.org/mms#dataElementDescription> "MedDRA High Level Term code from the primary path."^^xsd:string ;
  <http://rdf.cdisc.org/mms#dataElementLabel> "High Level Term Code"^^xsd:string ;
  <http://rdf.cdisc.org/mms#dataElementName> "--HLTCD"^^xsd:string ;
  <http://rdf.cdisc.org/mms#dataElementType> "xsd:positiveInteger"^^xsd:anySimpleType ;
  <http://rdf.cdisc.org/mms#ordinal> "8"^^xsd:positiveInteger ;
  cdiscs:dataElementRole <https://raw.githubusercontent.com/phuse-org/CTDasRDF/master/data/rdf/sdtm-1-3.ttl#Classifier.VariableQualifier> ;
  cdiscs:dataElementType <https://raw.githubusercontent.com/phuse-org/CTDasRDF/master/data/rdf/ct-schema.rdf#Classifier.Numeric> ;
  cdiscs:qualifies <https://raw.githubusercontent.com/phuse-org/CTDasRDF/master/data/rdf/sdtm-1-3.ttl#DataElement.Event.--HLT> ;
  cdiscs:supportedBySDTMIG "true"^^xsd:boolean ;
  cdiscs:supportedBySEND "true"^^xsd:boolean ;
.
<https://raw.githubusercontent.com/phuse-org/CTDasRDF/master/data/rdf/sdtm-1-3.ttl#DataElement.Event.--LLT>
  rdf:type <http://rdf.cdisc.org/mms#DataElement> ;
  <http://rdf.cdisc.org/mms#context> sdtm-1-3:EventVariables ;
  <http://rdf.cdisc.org/mms#dataElementDescription> "MedDRA Lowest Level Term."^^xsd:string ;
  <http://rdf.cdisc.org/mms#dataElementLabel> "Lowest Level Term"^^xsd:string ;
  <http://rdf.cdisc.org/mms#dataElementName> "--LLT"^^xsd:string ;
  <http://rdf.cdisc.org/mms#dataElementType> "xsd:string"^^xsd:anySimpleType ;
  <http://rdf.cdisc.org/mms#ordinal> "3"^^xsd:positiveInteger ;
  cdiscs:dataElementRole <https://raw.githubusercontent.com/phuse-org/CTDasRDF/master/data/rdf/sdtm-1-3.ttl#Classifier.VariableQualifier> ;
  cdiscs:dataElementType <https://raw.githubusercontent.com/phuse-org/CTDasRDF/master/data/rdf/ct-schema.rdf#Classifier.Character> ;
  cdiscs:qualifies <https://raw.githubusercontent.com/phuse-org/CTDasRDF/master/data/rdf/sdtm-1-3.ttl#DataElement.Event.--TERM> ;
  cdiscs:supportedBySDTMIG "true"^^xsd:boolean ;
  cdiscs:supportedBySEND "true"^^xsd:boolean ;
.
<https://raw.githubusercontent.com/phuse-org/CTDasRDF/master/data/rdf/sdtm-1-3.ttl#DataElement.Event.--LLTCD>
  rdf:type <http://rdf.cdisc.org/mms#DataElement> ;
  <http://rdf.cdisc.org/mms#context> sdtm-1-3:EventVariables ;
  <http://rdf.cdisc.org/mms#dataElementDescription> "MedDRA Lowest Level Term code."^^xsd:string ;
  <http://rdf.cdisc.org/mms#dataElementLabel> "Lowest Level Term Code"^^xsd:string ;
  <http://rdf.cdisc.org/mms#dataElementName> "--LLTCD"^^xsd:string ;
  <http://rdf.cdisc.org/mms#dataElementType> "xsd:positiveInteger"^^xsd:anySimpleType ;
  <http://rdf.cdisc.org/mms#ordinal> "4"^^xsd:positiveInteger ;
  cdiscs:dataElementRole <https://raw.githubusercontent.com/phuse-org/CTDasRDF/master/data/rdf/sdtm-1-3.ttl#Classifier.VariableQualifier> ;
  cdiscs:dataElementType <https://raw.githubusercontent.com/phuse-org/CTDasRDF/master/data/rdf/ct-schema.rdf#Classifier.Numeric> ;
  cdiscs:qualifies <https://raw.githubusercontent.com/phuse-org/CTDasRDF/master/data/rdf/sdtm-1-3.ttl#DataElement.Event.--LLT> ;
  cdiscs:supportedBySDTMIG "true"^^xsd:boolean ;
  cdiscs:supportedBySEND "true"^^xsd:boolean ;
.
<https://raw.githubusercontent.com/phuse-org/CTDasRDF/master/data/rdf/sdtm-1-3.ttl#DataElement.Event.--LOC>
  rdf:type <http://rdf.cdisc.org/mms#DataElement> ;
  <http://rdf.cdisc.org/mms#context> sdtm-1-3:EventVariables ;
  <http://rdf.cdisc.org/mms#dataElementDescription> "Describes anatomical location relevant for the event. Example: LEFT ARM for skin rash."^^xsd:string ;
  <http://rdf.cdisc.org/mms#dataElementLabel> "Location of Event"^^xsd:string ;
  <http://rdf.cdisc.org/mms#dataElementName> "--LOC"^^xsd:string ;
  <http://rdf.cdisc.org/mms#dataElementType> "xsd:string"^^xsd:anySimpleType ;
  <http://rdf.cdisc.org/mms#ordinal> "21"^^xsd:positiveInteger ;
  cdiscs:dataElementRole <https://raw.githubusercontent.com/phuse-org/CTDasRDF/master/data/rdf/sdtm-1-3.ttl#Classifier.RecordQualifier> ;
  cdiscs:dataElementType <https://raw.githubusercontent.com/phuse-org/CTDasRDF/master/data/rdf/ct-schema.rdf#Classifier.Character> ;
  cdiscs:supportedBySDTMIG "true"^^xsd:boolean ;
  cdiscs:supportedBySEND "true"^^xsd:boolean ;
.
<https://raw.githubusercontent.com/phuse-org/CTDasRDF/master/data/rdf/sdtm-1-3.ttl#DataElement.Event.--MODIFY>
  rdf:type <http://rdf.cdisc.org/mms#DataElement> ;
  <http://rdf.cdisc.org/mms#context> sdtm-1-3:EventVariables ;
  <http://rdf.cdisc.org/mms#dataElementDescription> "If the value for --TERM is modified for coding purposes, then the modified text is placed here."^^xsd:string ;
  <http://rdf.cdisc.org/mms#dataElementLabel> "Modified Reported Term"^^xsd:string ;
  <http://rdf.cdisc.org/mms#dataElementName> "--MODIFY"^^xsd:string ;
  <http://rdf.cdisc.org/mms#dataElementType> "xsd:string"^^xsd:anySimpleType ;
  <http://rdf.cdisc.org/mms#ordinal> "2"^^xsd:positiveInteger ;
  cdiscs:dataElementRole <https://raw.githubusercontent.com/phuse-org/CTDasRDF/master/data/rdf/sdtm-1-3.ttl#Classifier.SynonymQualifier> ;
  cdiscs:dataElementType <https://raw.githubusercontent.com/phuse-org/CTDasRDF/master/data/rdf/ct-schema.rdf#Classifier.Character> ;
  cdiscs:qualifies <https://raw.githubusercontent.com/phuse-org/CTDasRDF/master/data/rdf/sdtm-1-3.ttl#DataElement.Event.--TERM> ;
  cdiscs:supportedBySDTMIG "true"^^xsd:boolean ;
  cdiscs:supportedBySEND "true"^^xsd:boolean ;
.
<https://raw.githubusercontent.com/phuse-org/CTDasRDF/master/data/rdf/sdtm-1-3.ttl#DataElement.Event.--OCCUR>
  rdf:type <http://rdf.cdisc.org/mms#DataElement> ;
  <http://rdf.cdisc.org/mms#context> sdtm-1-3:EventVariables ;
  <http://rdf.cdisc.org/mms#dataElementDescription> "Used to record whether a pre-specified event occurred when information about the occurrence of a specific event is solicited."^^xsd:string ;
  <http://rdf.cdisc.org/mms#dataElementLabel> "Occurrence"^^xsd:string ;
  <http://rdf.cdisc.org/mms#dataElementName> "--OCCUR"^^xsd:string ;
  <http://rdf.cdisc.org/mms#dataElementType> "xsd:string"^^xsd:anySimpleType ;
  <http://rdf.cdisc.org/mms#ordinal> "14"^^xsd:positiveInteger ;
  cdiscs:dataElementRole <https://raw.githubusercontent.com/phuse-org/CTDasRDF/master/data/rdf/sdtm-1-3.ttl#Classifier.RecordQualifier> ;
  cdiscs:dataElementType <https://raw.githubusercontent.com/phuse-org/CTDasRDF/master/data/rdf/ct-schema.rdf#Classifier.Character> ;
  cdiscs:supportedBySDTMIG "true"^^xsd:boolean ;
  cdiscs:supportedBySEND "true"^^xsd:boolean ;
.
<https://raw.githubusercontent.com/phuse-org/CTDasRDF/master/data/rdf/sdtm-1-3.ttl#DataElement.Event.--OUT>
  rdf:type <http://rdf.cdisc.org/mms#DataElement> ;
  <http://rdf.cdisc.org/mms#context> sdtm-1-3:EventVariables ;
  <http://rdf.cdisc.org/mms#dataElementDescription> "Description of the outcome of an event. Examples: RECOVERED/RESOLVED, FATAL."^^xsd:string ;
  <http://rdf.cdisc.org/mms#dataElementLabel> "Outcome of Event"^^xsd:string ;
  <http://rdf.cdisc.org/mms#dataElementName> "--OUT"^^xsd:string ;
  <http://rdf.cdisc.org/mms#dataElementType> "xsd:string"^^xsd:anySimpleType ;
  <http://rdf.cdisc.org/mms#ordinal> "29"^^xsd:positiveInteger ;
  cdiscs:dataElementRole <https://raw.githubusercontent.com/phuse-org/CTDasRDF/master/data/rdf/sdtm-1-3.ttl#Classifier.RecordQualifier> ;
  cdiscs:dataElementType <https://raw.githubusercontent.com/phuse-org/CTDasRDF/master/data/rdf/ct-schema.rdf#Classifier.Character> ;
  cdiscs:supportedBySDTMIG "true"^^xsd:boolean ;
  cdiscs:supportedBySEND "true"^^xsd:boolean ;
.
<https://raw.githubusercontent.com/phuse-org/CTDasRDF/master/data/rdf/sdtm-1-3.ttl#DataElement.Event.--PATT>
  rdf:type <http://rdf.cdisc.org/mms#DataElement> ;
  <http://rdf.cdisc.org/mms#context> sdtm-1-3:EventVariables ;
  <http://rdf.cdisc.org/mms#dataElementDescription> "Used to indicate the pattern of the event over time. Examples: INTERMITTENT, CONTINUOUS, SINGLE EVENT."^^xsd:string ;
  <http://rdf.cdisc.org/mms#dataElementLabel> "Pattern of Event"^^xsd:string ;
  <http://rdf.cdisc.org/mms#dataElementName> "--PATT"^^xsd:string ;
  <http://rdf.cdisc.org/mms#dataElementType> "xsd:string"^^xsd:anySimpleType ;
  <http://rdf.cdisc.org/mms#ordinal> "28"^^xsd:positiveInteger ;
  cdiscs:dataElementRole <https://raw.githubusercontent.com/phuse-org/CTDasRDF/master/data/rdf/sdtm-1-3.ttl#Classifier.RecordQualifier> ;
  cdiscs:dataElementType <https://raw.githubusercontent.com/phuse-org/CTDasRDF/master/data/rdf/ct-schema.rdf#Classifier.Character> ;
  cdiscs:supportedBySDTMIG "true"^^xsd:boolean ;
  cdiscs:supportedBySEND "true"^^xsd:boolean ;
.
<https://raw.githubusercontent.com/phuse-org/CTDasRDF/master/data/rdf/sdtm-1-3.ttl#DataElement.Event.--PRESP>
  rdf:type <http://rdf.cdisc.org/mms#DataElement> ;
  <http://rdf.cdisc.org/mms#context> sdtm-1-3:EventVariables ;
  <http://rdf.cdisc.org/mms#dataElementDescription> "Used to indicate whether the event described by --TERM was pre-specified on a CRF. Value is Y for pre-specified events, null for spontaneously reported events."^^xsd:string ;
  <http://rdf.cdisc.org/mms#dataElementLabel> "Pre-specified"^^xsd:string ;
  <http://rdf.cdisc.org/mms#dataElementName> "--PRESP"^^xsd:string ;
  <http://rdf.cdisc.org/mms#dataElementType> "xsd:string"^^xsd:anySimpleType ;
  <http://rdf.cdisc.org/mms#ordinal> "13"^^xsd:positiveInteger ;
  cdiscs:dataElementRole <https://raw.githubusercontent.com/phuse-org/CTDasRDF/master/data/rdf/sdtm-1-3.ttl#Classifier.VariableQualifier> ;
  cdiscs:dataElementType <https://raw.githubusercontent.com/phuse-org/CTDasRDF/master/data/rdf/ct-schema.rdf#Classifier.Character> ;
  cdiscs:qualifies <https://raw.githubusercontent.com/phuse-org/CTDasRDF/master/data/rdf/sdtm-1-3.ttl#DataElement.Event.--TERM> ;
  cdiscs:supportedBySDTMIG "true"^^xsd:boolean ;
  cdiscs:supportedBySEND "true"^^xsd:boolean ;
.
<https://raw.githubusercontent.com/phuse-org/CTDasRDF/master/data/rdf/sdtm-1-3.ttl#DataElement.Event.--PTCD>
  rdf:type <http://rdf.cdisc.org/mms#DataElement> ;
  <http://rdf.cdisc.org/mms#context> sdtm-1-3:EventVariables ;
  <http://rdf.cdisc.org/mms#dataElementDescription> "MedDRA Preferred Term code."^^xsd:string ;
  <http://rdf.cdisc.org/mms#dataElementLabel> "Preferred Term Code"^^xsd:string ;
  <http://rdf.cdisc.org/mms#dataElementName> "--PTCD"^^xsd:string ;
  <http://rdf.cdisc.org/mms#dataElementType> "xsd:positiveInteger"^^xsd:anySimpleType ;
  <http://rdf.cdisc.org/mms#ordinal> "6"^^xsd:positiveInteger ;
  cdiscs:dataElementRole <https://raw.githubusercontent.com/phuse-org/CTDasRDF/master/data/rdf/sdtm-1-3.ttl#Classifier.VariableQualifier> ;
  cdiscs:dataElementType <https://raw.githubusercontent.com/phuse-org/CTDasRDF/master/data/rdf/ct-schema.rdf#Classifier.Numeric> ;
  cdiscs:qualifies <https://raw.githubusercontent.com/phuse-org/CTDasRDF/master/data/rdf/sdtm-1-3.ttl#DataElement.Event.--DECOD> ;
  cdiscs:supportedBySDTMIG "true"^^xsd:boolean ;
  cdiscs:supportedBySEND "true"^^xsd:boolean ;
.
<https://raw.githubusercontent.com/phuse-org/CTDasRDF/master/data/rdf/sdtm-1-3.ttl#DataElement.Event.--REASND>
  rdf:type <http://rdf.cdisc.org/mms#DataElement> ;
  <http://rdf.cdisc.org/mms#context> sdtm-1-3:EventVariables ;
  <http://rdf.cdisc.org/mms#dataElementDescription> "Reason not done. Used in conjunction with --STAT when its value is NOT DONE."^^xsd:string ;
  <http://rdf.cdisc.org/mms#dataElementLabel> "Reason Not Done"^^xsd:string ;
  <http://rdf.cdisc.org/mms#dataElementName> "--REASND"^^xsd:string ;
  <http://rdf.cdisc.org/mms#dataElementType> "xsd:string"^^xsd:anySimpleType ;
  <http://rdf.cdisc.org/mms#ordinal> "16"^^xsd:positiveInteger ;
  cdiscs:dataElementRole <https://raw.githubusercontent.com/phuse-org/CTDasRDF/master/data/rdf/sdtm-1-3.ttl#Classifier.RecordQualifier> ;
  cdiscs:dataElementType <https://raw.githubusercontent.com/phuse-org/CTDasRDF/master/data/rdf/ct-schema.rdf#Classifier.Character> ;
  cdiscs:supportedBySDTMIG "true"^^xsd:boolean ;
  cdiscs:supportedBySEND "true"^^xsd:boolean ;
.
<https://raw.githubusercontent.com/phuse-org/CTDasRDF/master/data/rdf/sdtm-1-3.ttl#DataElement.Event.--REL>
  rdf:type <http://rdf.cdisc.org/mms#DataElement> ;
  <http://rdf.cdisc.org/mms#context> sdtm-1-3:EventVariables ;
  <http://rdf.cdisc.org/mms#dataElementDescription> "Records the investigator's opinion as to the causality of the event to the treatment. ICH E2A and E2B examples include NOT RELATED, UNLIKELY RELATED, POSSIBLY RELATED, RELATED."^^xsd:string ;
  <http://rdf.cdisc.org/mms#dataElementLabel> "Causality"^^xsd:string ;
  <http://rdf.cdisc.org/mms#dataElementName> "--REL"^^xsd:string ;
  <http://rdf.cdisc.org/mms#dataElementType> "xsd:string"^^xsd:anySimpleType ;
  <http://rdf.cdisc.org/mms#ordinal> "26"^^xsd:positiveInteger ;
  cdiscs:dataElementRole <https://raw.githubusercontent.com/phuse-org/CTDasRDF/master/data/rdf/sdtm-1-3.ttl#Classifier.RecordQualifier> ;
  cdiscs:dataElementType <https://raw.githubusercontent.com/phuse-org/CTDasRDF/master/data/rdf/ct-schema.rdf#Classifier.Character> ;
  cdiscs:supportedBySDTMIG "true"^^xsd:boolean ;
  cdiscs:supportedBySEND "true"^^xsd:boolean ;
.
<https://raw.githubusercontent.com/phuse-org/CTDasRDF/master/data/rdf/sdtm-1-3.ttl#DataElement.Event.--RELNST>
  rdf:type <http://rdf.cdisc.org/mms#DataElement> ;
  <http://rdf.cdisc.org/mms#context> sdtm-1-3:EventVariables ;
  <http://rdf.cdisc.org/mms#dataElementDescription> "An opinion as to whether the event may have been due to a treatment other than study drug. Example: \"MORE LIKELY RELATED TO ASPIRIN USE.\""^^xsd:string ;
  <http://rdf.cdisc.org/mms#dataElementLabel> "Relationship to Non-Study Treatment"^^xsd:string ;
  <http://rdf.cdisc.org/mms#dataElementName> "--RELNST"^^xsd:string ;
  <http://rdf.cdisc.org/mms#dataElementType> "xsd:string"^^xsd:anySimpleType ;
  <http://rdf.cdisc.org/mms#ordinal> "27"^^xsd:positiveInteger ;
  cdiscs:dataElementRole <https://raw.githubusercontent.com/phuse-org/CTDasRDF/master/data/rdf/sdtm-1-3.ttl#Classifier.RecordQualifier> ;
  cdiscs:dataElementType <https://raw.githubusercontent.com/phuse-org/CTDasRDF/master/data/rdf/ct-schema.rdf#Classifier.Character> ;
  cdiscs:supportedBySDTMIG "true"^^xsd:boolean ;
  cdiscs:supportedBySEND "true"^^xsd:boolean ;
.
<https://raw.githubusercontent.com/phuse-org/CTDasRDF/master/data/rdf/sdtm-1-3.ttl#DataElement.Event.--SCAN>
  rdf:type <http://rdf.cdisc.org/mms#DataElement> ;
  <http://rdf.cdisc.org/mms#context> sdtm-1-3:EventVariables ;
  <http://rdf.cdisc.org/mms#dataElementDescription> "Was the event associated with the development of cancer? Valid values are \"Y\" and \"N\"."^^xsd:string ;
  <http://rdf.cdisc.org/mms#dataElementLabel> "Involves Cancer"^^xsd:string ;
  <http://rdf.cdisc.org/mms#dataElementName> "--SCAN"^^xsd:string ;
  <http://rdf.cdisc.org/mms#dataElementType> "xsd:string"^^xsd:anySimpleType ;
  <http://rdf.cdisc.org/mms#ordinal> "30"^^xsd:positiveInteger ;
  cdiscs:dataElementRole <https://raw.githubusercontent.com/phuse-org/CTDasRDF/master/data/rdf/sdtm-1-3.ttl#Classifier.RecordQualifier> ;
  cdiscs:dataElementType <https://raw.githubusercontent.com/phuse-org/CTDasRDF/master/data/rdf/ct-schema.rdf#Classifier.Character> ;
  cdiscs:supportedBySDTMIG "true"^^xsd:boolean ;
  cdiscs:supportedBySEND "true"^^xsd:boolean ;
.
<https://raw.githubusercontent.com/phuse-org/CTDasRDF/master/data/rdf/sdtm-1-3.ttl#DataElement.Event.--SCAT>
  rdf:type <http://rdf.cdisc.org/mms#DataElement> ;
  <http://rdf.cdisc.org/mms#context> sdtm-1-3:EventVariables ;
  <http://rdf.cdisc.org/mms#dataElementDescription> "Used to define a further categorization of --CAT values."^^xsd:string ;
  <http://rdf.cdisc.org/mms#dataElementLabel> "Subcategory"^^xsd:string ;
  <http://rdf.cdisc.org/mms#dataElementName> "--SCAT"^^xsd:string ;
  <http://rdf.cdisc.org/mms#dataElementType> "xsd:string"^^xsd:anySimpleType ;
  <http://rdf.cdisc.org/mms#ordinal> "12"^^xsd:positiveInteger ;
  cdiscs:dataElementRole <https://raw.githubusercontent.com/phuse-org/CTDasRDF/master/data/rdf/sdtm-1-3.ttl#Classifier.GroupingQualifier> ;
  cdiscs:dataElementType <https://raw.githubusercontent.com/phuse-org/CTDasRDF/master/data/rdf/ct-schema.rdf#Classifier.Character> ;
  cdiscs:supportedBySDTMIG "true"^^xsd:boolean ;
  cdiscs:supportedBySEND "true"^^xsd:boolean ;
.
<https://raw.githubusercontent.com/phuse-org/CTDasRDF/master/data/rdf/sdtm-1-3.ttl#DataElement.Event.--SCONG>
  rdf:type <http://rdf.cdisc.org/mms#DataElement> ;
  <http://rdf.cdisc.org/mms#context> sdtm-1-3:EventVariables ;
  <http://rdf.cdisc.org/mms#dataElementDescription> "Was the event associated with congenital anomaly or birth defect? Valid values are \"Y\" and \"N\"."^^xsd:string ;
  <http://rdf.cdisc.org/mms#dataElementLabel> "Congenital Anomaly or Birth Defect"^^xsd:string ;
  <http://rdf.cdisc.org/mms#dataElementName> "--SCONG"^^xsd:string ;
  <http://rdf.cdisc.org/mms#dataElementType> "xsd:string"^^xsd:anySimpleType ;
  <http://rdf.cdisc.org/mms#ordinal> "31"^^xsd:positiveInteger ;
  cdiscs:dataElementRole <https://raw.githubusercontent.com/phuse-org/CTDasRDF/master/data/rdf/sdtm-1-3.ttl#Classifier.RecordQualifier> ;
  cdiscs:dataElementType <https://raw.githubusercontent.com/phuse-org/CTDasRDF/master/data/rdf/ct-schema.rdf#Classifier.Character> ;
  cdiscs:supportedBySDTMIG "true"^^xsd:boolean ;
  cdiscs:supportedBySEND "true"^^xsd:boolean ;
.
<https://raw.githubusercontent.com/phuse-org/CTDasRDF/master/data/rdf/sdtm-1-3.ttl#DataElement.Event.--SDISAB>
  rdf:type <http://rdf.cdisc.org/mms#DataElement> ;
  <http://rdf.cdisc.org/mms#context> sdtm-1-3:EventVariables ;
  <http://rdf.cdisc.org/mms#dataElementDescription> "Did the event result in persistent or significant disability/incapacity? Valid values are \"Y\" and \"N\"."^^xsd:string ;
  <http://rdf.cdisc.org/mms#dataElementLabel> "Persist or Signif Disability/Incapacity"^^xsd:string ;
  <http://rdf.cdisc.org/mms#dataElementName> "--SDISAB"^^xsd:string ;
  <http://rdf.cdisc.org/mms#dataElementType> "xsd:string"^^xsd:anySimpleType ;
  <http://rdf.cdisc.org/mms#ordinal> "32"^^xsd:positiveInteger ;
  cdiscs:dataElementRole <https://raw.githubusercontent.com/phuse-org/CTDasRDF/master/data/rdf/sdtm-1-3.ttl#Classifier.RecordQualifier> ;
  cdiscs:dataElementType <https://raw.githubusercontent.com/phuse-org/CTDasRDF/master/data/rdf/ct-schema.rdf#Classifier.Character> ;
  cdiscs:supportedBySDTMIG "true"^^xsd:boolean ;
  cdiscs:supportedBySEND "true"^^xsd:boolean ;
.
<https://raw.githubusercontent.com/phuse-org/CTDasRDF/master/data/rdf/sdtm-1-3.ttl#DataElement.Event.--SDTH>
  rdf:type <http://rdf.cdisc.org/mms#DataElement> ;
  <http://rdf.cdisc.org/mms#context> sdtm-1-3:EventVariables ;
  <http://rdf.cdisc.org/mms#dataElementDescription> "Did the event result in death? Valid values are \"Y\" and \"N\"."^^xsd:string ;
  <http://rdf.cdisc.org/mms#dataElementLabel> "Results in Death"^^xsd:string ;
  <http://rdf.cdisc.org/mms#dataElementName> "--SDTH"^^xsd:string ;
  <http://rdf.cdisc.org/mms#dataElementType> "xsd:string"^^xsd:anySimpleType ;
  <http://rdf.cdisc.org/mms#ordinal> "33"^^xsd:positiveInteger ;
  cdiscs:dataElementRole <https://raw.githubusercontent.com/phuse-org/CTDasRDF/master/data/rdf/sdtm-1-3.ttl#Classifier.RecordQualifier> ;
  cdiscs:dataElementType <https://raw.githubusercontent.com/phuse-org/CTDasRDF/master/data/rdf/ct-schema.rdf#Classifier.Character> ;
  cdiscs:supportedBySDTMIG "true"^^xsd:boolean ;
  cdiscs:supportedBySEND "true"^^xsd:boolean ;
.
<https://raw.githubusercontent.com/phuse-org/CTDasRDF/master/data/rdf/sdtm-1-3.ttl#DataElement.Event.--SER>
  rdf:type <http://rdf.cdisc.org/mms#DataElement> ;
  <http://rdf.cdisc.org/mms#context> sdtm-1-3:EventVariables ;
  <http://rdf.cdisc.org/mms#dataElementDescription> "Is this is a serious event? Valid values are \"Y\" and \"N\"."^^xsd:string ;
  <http://rdf.cdisc.org/mms#dataElementLabel> "Serious Event"^^xsd:string ;
  <http://rdf.cdisc.org/mms#dataElementName> "--SER"^^xsd:string ;
  <http://rdf.cdisc.org/mms#dataElementType> "xsd:string"^^xsd:anySimpleType ;
  <http://rdf.cdisc.org/mms#ordinal> "23"^^xsd:positiveInteger ;
  cdiscs:dataElementRole <https://raw.githubusercontent.com/phuse-org/CTDasRDF/master/data/rdf/sdtm-1-3.ttl#Classifier.RecordQualifier> ;
  cdiscs:dataElementType <https://raw.githubusercontent.com/phuse-org/CTDasRDF/master/data/rdf/ct-schema.rdf#Classifier.Character> ;
  cdiscs:supportedBySDTMIG "true"^^xsd:boolean ;
  cdiscs:supportedBySEND "true"^^xsd:boolean ;
.
<https://raw.githubusercontent.com/phuse-org/CTDasRDF/master/data/rdf/sdtm-1-3.ttl#DataElement.Event.--SEV>
  rdf:type <http://rdf.cdisc.org/mms#DataElement> ;
  <http://rdf.cdisc.org/mms#context> sdtm-1-3:EventVariables ;
  <http://rdf.cdisc.org/mms#dataElementDescription> "The severity or intensity of the event. Examples: MILD, MODERATE, SEVERE."^^xsd:string ;
  <http://rdf.cdisc.org/mms#dataElementLabel> "Severity/Intensity"^^xsd:string ;
  <http://rdf.cdisc.org/mms#dataElementName> "--SEV"^^xsd:string ;
  <http://rdf.cdisc.org/mms#dataElementType> "xsd:string"^^xsd:anySimpleType ;
  <http://rdf.cdisc.org/mms#ordinal> "22"^^xsd:positiveInteger ;
  cdiscs:dataElementRole <https://raw.githubusercontent.com/phuse-org/CTDasRDF/master/data/rdf/sdtm-1-3.ttl#Classifier.RecordQualifier> ;
  cdiscs:dataElementType <https://raw.githubusercontent.com/phuse-org/CTDasRDF/master/data/rdf/ct-schema.rdf#Classifier.Character> ;
  cdiscs:supportedBySDTMIG "true"^^xsd:boolean ;
  cdiscs:supportedBySEND "true"^^xsd:boolean ;
.
<https://raw.githubusercontent.com/phuse-org/CTDasRDF/master/data/rdf/sdtm-1-3.ttl#DataElement.Event.--SHOSP>
  rdf:type <http://rdf.cdisc.org/mms#DataElement> ;
  <http://rdf.cdisc.org/mms#context> sdtm-1-3:EventVariables ;
  <http://rdf.cdisc.org/mms#dataElementDescription> "Did the event require or prolong hospitalization? Valid values are \"Y\" and \"N\"."^^xsd:string ;
  <http://rdf.cdisc.org/mms#dataElementLabel> "Requires or Prolongs Hospitalization"^^xsd:string ;
  <http://rdf.cdisc.org/mms#dataElementName> "--SHOSP"^^xsd:string ;
  <http://rdf.cdisc.org/mms#dataElementType> "xsd:string"^^xsd:anySimpleType ;
  <http://rdf.cdisc.org/mms#ordinal> "34"^^xsd:positiveInteger ;
  cdiscs:dataElementRole <https://raw.githubusercontent.com/phuse-org/CTDasRDF/master/data/rdf/sdtm-1-3.ttl#Classifier.RecordQualifier> ;
  cdiscs:dataElementType <https://raw.githubusercontent.com/phuse-org/CTDasRDF/master/data/rdf/ct-schema.rdf#Classifier.Character> ;
  cdiscs:supportedBySDTMIG "true"^^xsd:boolean ;
  cdiscs:supportedBySEND "true"^^xsd:boolean ;
.
<https://raw.githubusercontent.com/phuse-org/CTDasRDF/master/data/rdf/sdtm-1-3.ttl#DataElement.Event.--SLIFE>
  rdf:type <http://rdf.cdisc.org/mms#DataElement> ;
  <http://rdf.cdisc.org/mms#context> sdtm-1-3:EventVariables ;
  <http://rdf.cdisc.org/mms#dataElementDescription> "Was the event life threatening? Valid values are \"Y\" and \"N\"."^^xsd:string ;
  <http://rdf.cdisc.org/mms#dataElementLabel> "Is Life Threatening"^^xsd:string ;
  <http://rdf.cdisc.org/mms#dataElementName> "--SLIFE"^^xsd:string ;
  <http://rdf.cdisc.org/mms#dataElementType> "xsd:string"^^xsd:anySimpleType ;
  <http://rdf.cdisc.org/mms#ordinal> "35"^^xsd:positiveInteger ;
  cdiscs:dataElementRole <https://raw.githubusercontent.com/phuse-org/CTDasRDF/master/data/rdf/sdtm-1-3.ttl#Classifier.RecordQualifier> ;
  cdiscs:dataElementType <https://raw.githubusercontent.com/phuse-org/CTDasRDF/master/data/rdf/ct-schema.rdf#Classifier.Character> ;
  cdiscs:supportedBySDTMIG "true"^^xsd:boolean ;
  cdiscs:supportedBySEND "true"^^xsd:boolean ;
.
<https://raw.githubusercontent.com/phuse-org/CTDasRDF/master/data/rdf/sdtm-1-3.ttl#DataElement.Event.--SMIE>
  rdf:type <http://rdf.cdisc.org/mms#DataElement> ;
  <http://rdf.cdisc.org/mms#context> sdtm-1-3:EventVariables ;
  <http://rdf.cdisc.org/mms#dataElementDescription> "Do additional categories for seriousness apply? Valid values are \"Y\" and \"N\"."^^xsd:string ;
  <http://rdf.cdisc.org/mms#dataElementLabel> "Other Medically Important Serious Event"^^xsd:string ;
  <http://rdf.cdisc.org/mms#dataElementName> "--SMIE"^^xsd:string ;
  <http://rdf.cdisc.org/mms#dataElementType> "xsd:string"^^xsd:anySimpleType ;
  <http://rdf.cdisc.org/mms#ordinal> "37"^^xsd:positiveInteger ;
  cdiscs:dataElementRole <https://raw.githubusercontent.com/phuse-org/CTDasRDF/master/data/rdf/sdtm-1-3.ttl#Classifier.RecordQualifier> ;
  cdiscs:dataElementType <https://raw.githubusercontent.com/phuse-org/CTDasRDF/master/data/rdf/ct-schema.rdf#Classifier.Character> ;
  cdiscs:supportedBySDTMIG "true"^^xsd:boolean ;
  cdiscs:supportedBySEND "true"^^xsd:boolean ;
.
<https://raw.githubusercontent.com/phuse-org/CTDasRDF/master/data/rdf/sdtm-1-3.ttl#DataElement.Event.--SOC>
  rdf:type <http://rdf.cdisc.org/mms#DataElement> ;
  <http://rdf.cdisc.org/mms#context> sdtm-1-3:EventVariables ;
  <http://rdf.cdisc.org/mms#dataElementDescription> "MedDRA primary System Organ Class associated with the event."^^xsd:string ;
  <http://rdf.cdisc.org/mms#dataElementLabel> "Primary System Organ Class"^^xsd:string ;
  <http://rdf.cdisc.org/mms#dataElementName> "--SOC"^^xsd:string ;
  <http://rdf.cdisc.org/mms#dataElementType> "xsd:string"^^xsd:anySimpleType ;
  <http://rdf.cdisc.org/mms#ordinal> "19"^^xsd:positiveInteger ;
  cdiscs:dataElementRole <https://raw.githubusercontent.com/phuse-org/CTDasRDF/master/data/rdf/sdtm-1-3.ttl#Classifier.VariableQualifier> ;
  cdiscs:dataElementType <https://raw.githubusercontent.com/phuse-org/CTDasRDF/master/data/rdf/ct-schema.rdf#Classifier.Character> ;
  cdiscs:qualifies <https://raw.githubusercontent.com/phuse-org/CTDasRDF/master/data/rdf/sdtm-1-3.ttl#DataElement.Event.--TERM> ;
  cdiscs:supportedBySDTMIG "true"^^xsd:boolean ;
  cdiscs:supportedBySEND "true"^^xsd:boolean ;
.
<https://raw.githubusercontent.com/phuse-org/CTDasRDF/master/data/rdf/sdtm-1-3.ttl#DataElement.Event.--SOCCD>
  rdf:type <http://rdf.cdisc.org/mms#DataElement> ;
  <http://rdf.cdisc.org/mms#context> sdtm-1-3:EventVariables ;
  <http://rdf.cdisc.org/mms#dataElementDescription> "MedDRA primary System Organ Class code."^^xsd:string ;
  <http://rdf.cdisc.org/mms#dataElementLabel> "Primary System Organ Class Code"^^xsd:string ;
  <http://rdf.cdisc.org/mms#dataElementName> "--SOCCD"^^xsd:string ;
  <http://rdf.cdisc.org/mms#dataElementType> "xsd:positiveInteger"^^xsd:anySimpleType ;
  <http://rdf.cdisc.org/mms#ordinal> "20"^^xsd:positiveInteger ;
  cdiscs:dataElementRole <https://raw.githubusercontent.com/phuse-org/CTDasRDF/master/data/rdf/sdtm-1-3.ttl#Classifier.VariableQualifier> ;
  cdiscs:dataElementType <https://raw.githubusercontent.com/phuse-org/CTDasRDF/master/data/rdf/ct-schema.rdf#Classifier.Numeric> ;
  cdiscs:qualifies <https://raw.githubusercontent.com/phuse-org/CTDasRDF/master/data/rdf/sdtm-1-3.ttl#DataElement.Event.--SOC> ;
  cdiscs:supportedBySDTMIG "true"^^xsd:boolean ;
  cdiscs:supportedBySEND "true"^^xsd:boolean ;
.
<https://raw.githubusercontent.com/phuse-org/CTDasRDF/master/data/rdf/sdtm-1-3.ttl#DataElement.Event.--SOD>
  rdf:type <http://rdf.cdisc.org/mms#DataElement> ;
  <http://rdf.cdisc.org/mms#context> sdtm-1-3:EventVariables ;
  <http://rdf.cdisc.org/mms#dataElementDescription> "Did the event occur with an overdose? Valid values are \"Y\" and \"N\"."^^xsd:string ;
  <http://rdf.cdisc.org/mms#dataElementLabel> "Occurred with Overdose"^^xsd:string ;
  <http://rdf.cdisc.org/mms#dataElementName> "--SOD"^^xsd:string ;
  <http://rdf.cdisc.org/mms#dataElementType> "xsd:string"^^xsd:anySimpleType ;
  <http://rdf.cdisc.org/mms#ordinal> "36"^^xsd:positiveInteger ;
  cdiscs:dataElementRole <https://raw.githubusercontent.com/phuse-org/CTDasRDF/master/data/rdf/sdtm-1-3.ttl#Classifier.RecordQualifier> ;
  cdiscs:dataElementType <https://raw.githubusercontent.com/phuse-org/CTDasRDF/master/data/rdf/ct-schema.rdf#Classifier.Character> ;
  cdiscs:supportedBySDTMIG "true"^^xsd:boolean ;
  cdiscs:supportedBySEND "true"^^xsd:boolean ;
.
<https://raw.githubusercontent.com/phuse-org/CTDasRDF/master/data/rdf/sdtm-1-3.ttl#DataElement.Event.--STAT>
  rdf:type <http://rdf.cdisc.org/mms#DataElement> ;
  <http://rdf.cdisc.org/mms#context> sdtm-1-3:EventVariables ;
  <http://rdf.cdisc.org/mms#dataElementDescription> "Used to indicate when a question about the occurrence of a pre-specified event was not answered. Should be null or have a value of NOT DONE."^^xsd:string ;
  <http://rdf.cdisc.org/mms#dataElementLabel> "Completion Status"^^xsd:string ;
  <http://rdf.cdisc.org/mms#dataElementName> "--STAT"^^xsd:string ;
  <http://rdf.cdisc.org/mms#dataElementType> "xsd:string"^^xsd:anySimpleType ;
  <http://rdf.cdisc.org/mms#ordinal> "15"^^xsd:positiveInteger ;
  cdiscs:dataElementRole <https://raw.githubusercontent.com/phuse-org/CTDasRDF/master/data/rdf/sdtm-1-3.ttl#Classifier.RecordQualifier> ;
  cdiscs:dataElementType <https://raw.githubusercontent.com/phuse-org/CTDasRDF/master/data/rdf/ct-schema.rdf#Classifier.Character> ;
  cdiscs:supportedBySDTMIG "true"^^xsd:boolean ;
  cdiscs:supportedBySEND "true"^^xsd:boolean ;
.
<https://raw.githubusercontent.com/phuse-org/CTDasRDF/master/data/rdf/sdtm-1-3.ttl#DataElement.Event.--TERM>
  rdf:type <http://rdf.cdisc.org/mms#DataElement> ;
  <http://rdf.cdisc.org/mms#context> sdtm-1-3:EventVariables ;
  <http://rdf.cdisc.org/mms#dataElementDescription> "Topic variable for an event observation, which is the verbatim or pre-specified name of the event."^^xsd:string ;
  <http://rdf.cdisc.org/mms#dataElementLabel> "Reported Term"^^xsd:string ;
  <http://rdf.cdisc.org/mms#dataElementName> "--TERM"^^xsd:string ;
  <http://rdf.cdisc.org/mms#dataElementType> "xsd:string"^^xsd:anySimpleType ;
  <http://rdf.cdisc.org/mms#ordinal> "1"^^xsd:positiveInteger ;
  cdiscs:dataElementRole <https://raw.githubusercontent.com/phuse-org/CTDasRDF/master/data/rdf/sdtm-1-3.ttl#Classifier.TopicVariable> ;
  cdiscs:dataElementType <https://raw.githubusercontent.com/phuse-org/CTDasRDF/master/data/rdf/ct-schema.rdf#Classifier.Character> ;
  cdiscs:supportedBySDTMIG "true"^^xsd:boolean ;
  cdiscs:supportedBySEND "true"^^xsd:boolean ;
.
<https://raw.githubusercontent.com/phuse-org/CTDasRDF/master/data/rdf/sdtm-1-3.ttl#DataElement.Event.--TOX>
  rdf:type <http://rdf.cdisc.org/mms#DataElement> ;
  <http://rdf.cdisc.org/mms#context> sdtm-1-3:EventVariables ;
  <http://rdf.cdisc.org/mms#dataElementDescription> "Description of toxicity quantified by --TOXGR such as NCI CTCAE Short Name. Examples: HYPERCALCEMIA, HYPOCALCEMIA. Sponsor should specify which scale and version is used in the Sponsor Comments column of the Define.xml document."^^xsd:string ;
  <http://rdf.cdisc.org/mms#dataElementLabel> "Toxicity"^^xsd:string ;
  <http://rdf.cdisc.org/mms#dataElementName> "--TOX"^^xsd:string ;
  <http://rdf.cdisc.org/mms#dataElementType> "xsd:string"^^xsd:anySimpleType ;
  <http://rdf.cdisc.org/mms#ordinal> "39"^^xsd:positiveInteger ;
  cdiscs:dataElementRole <https://raw.githubusercontent.com/phuse-org/CTDasRDF/master/data/rdf/sdtm-1-3.ttl#Classifier.VariableQualifier> ;
  cdiscs:dataElementType <https://raw.githubusercontent.com/phuse-org/CTDasRDF/master/data/rdf/ct-schema.rdf#Classifier.Character> ;
  cdiscs:qualifies <https://raw.githubusercontent.com/phuse-org/CTDasRDF/master/data/rdf/sdtm-1-3.ttl#DataElement.Event.--TOXGR> ;
  cdiscs:supportedBySDTMIG "true"^^xsd:boolean ;
  cdiscs:supportedBySEND "true"^^xsd:boolean ;
.
<https://raw.githubusercontent.com/phuse-org/CTDasRDF/master/data/rdf/sdtm-1-3.ttl#DataElement.Event.--TOXGR>
  rdf:type <http://rdf.cdisc.org/mms#DataElement> ;
  <http://rdf.cdisc.org/mms#context> sdtm-1-3:EventVariables ;
  <http://rdf.cdisc.org/mms#dataElementDescription> "Records toxicity grade using a standard toxicity scale (such as the NCI CTCAE). Sponsor should specify which scale and version is used in the Sponsor Comments column of the Define.xml document."^^xsd:string ;
  <http://rdf.cdisc.org/mms#dataElementLabel> "Toxicity Grade"^^xsd:string ;
  <http://rdf.cdisc.org/mms#dataElementName> "--TOXGR"^^xsd:string ;
  <http://rdf.cdisc.org/mms#dataElementType> "xsd:string"^^xsd:anySimpleType ;
  <http://rdf.cdisc.org/mms#ordinal> "40"^^xsd:positiveInteger ;
  cdiscs:dataElementRole <https://raw.githubusercontent.com/phuse-org/CTDasRDF/master/data/rdf/sdtm-1-3.ttl#Classifier.RecordQualifier> ;
  cdiscs:dataElementType <https://raw.githubusercontent.com/phuse-org/CTDasRDF/master/data/rdf/ct-schema.rdf#Classifier.Character> ;
  cdiscs:supportedBySDTMIG "true"^^xsd:boolean ;
  cdiscs:supportedBySEND "true"^^xsd:boolean ;
.
<https://raw.githubusercontent.com/phuse-org/CTDasRDF/master/data/rdf/sdtm-1-3.ttl#DataElement.Finding.--ACPTFL>
  rdf:type <http://rdf.cdisc.org/mms#DataElement> ;
  <http://rdf.cdisc.org/mms#context> sdtm-1-3:FindingVariables ;
  <http://rdf.cdisc.org/mms#dataElementDescription> "In cases where more than one assessor provides an evaluation of a result or response, this flag identifies the record that is considered, by an independent assessor, to be the accepted evaluation. Expected to be Y or null."^^xsd:string ;
  <http://rdf.cdisc.org/mms#dataElementLabel> "Accepted Record Flag"^^xsd:string ;
  <http://rdf.cdisc.org/mms#dataElementName> "--ACPTFL"^^xsd:string ;
  <http://rdf.cdisc.org/mms#dataElementType> "xsd:string"^^xsd:anySimpleType ;
  <http://rdf.cdisc.org/mms#ordinal> "41"^^xsd:positiveInteger ;
  cdiscs:dataElementRole <https://raw.githubusercontent.com/phuse-org/CTDasRDF/master/data/rdf/sdtm-1-3.ttl#Classifier.RecordQualifier> ;
  cdiscs:dataElementType <https://raw.githubusercontent.com/phuse-org/CTDasRDF/master/data/rdf/ct-schema.rdf#Classifier.Character> ;
  cdiscs:supportedBySDTMIG "true"^^xsd:boolean ;
  cdiscs:supportedBySEND "true"^^xsd:boolean ;
.
<https://raw.githubusercontent.com/phuse-org/CTDasRDF/master/data/rdf/sdtm-1-3.ttl#DataElement.Finding.--ANTREG>
  rdf:type <http://rdf.cdisc.org/mms#DataElement> ;
  <http://rdf.cdisc.org/mms#context> sdtm-1-3:FindingVariables ;
  <http://rdf.cdisc.org/mms#dataElementDescription> "Defines the specific anatomical or biological region of a tissue, organ specimen or the region from which the specimen is obtained, as defined in the protocol, such as a section or part of what is described in the --SPEC variable. Examples: CORTEX, MEDULLA, MUCOSA."^^xsd:string ;
  <http://rdf.cdisc.org/mms#dataElementLabel> "Anatomical Region"^^xsd:string ;
  <http://rdf.cdisc.org/mms#dataElementName> "--ANTREG"^^xsd:string ;
  <http://rdf.cdisc.org/mms#dataElementType> "xsd:string"^^xsd:anySimpleType ;
  <http://rdf.cdisc.org/mms#ordinal> "26"^^xsd:positiveInteger ;
  cdiscs:dataElementRole <https://raw.githubusercontent.com/phuse-org/CTDasRDF/master/data/rdf/sdtm-1-3.ttl#Classifier.VariableQualifier> ;
  cdiscs:dataElementType <https://raw.githubusercontent.com/phuse-org/CTDasRDF/master/data/rdf/ct-schema.rdf#Classifier.Character> ;
  cdiscs:qualifies <https://raw.githubusercontent.com/phuse-org/CTDasRDF/master/data/rdf/sdtm-1-3.ttl#DataElement.Finding.--SPEC> ;
  cdiscs:supportedBySDTMIG "true"^^xsd:boolean ;
  cdiscs:supportedBySEND "true"^^xsd:boolean ;
.
<https://raw.githubusercontent.com/phuse-org/CTDasRDF/master/data/rdf/sdtm-1-3.ttl#DataElement.Finding.--BLFL>
  rdf:type <http://rdf.cdisc.org/mms#DataElement> ;
  <http://rdf.cdisc.org/mms#context> sdtm-1-3:FindingVariables ;
  <http://rdf.cdisc.org/mms#dataElementDescription> "Indicator used to identify a baseline value. Should be Y or null."^^xsd:string ;
  <http://rdf.cdisc.org/mms#dataElementLabel> "Baseline Flag"^^xsd:string ;
  <http://rdf.cdisc.org/mms#dataElementName> "--BLFL"^^xsd:string ;
  <http://rdf.cdisc.org/mms#dataElementType> "xsd:string"^^xsd:anySimpleType ;
  <http://rdf.cdisc.org/mms#ordinal> "36"^^xsd:positiveInteger ;
  cdiscs:dataElementRole <https://raw.githubusercontent.com/phuse-org/CTDasRDF/master/data/rdf/sdtm-1-3.ttl#Classifier.RecordQualifier> ;
  cdiscs:dataElementType <https://raw.githubusercontent.com/phuse-org/CTDasRDF/master/data/rdf/ct-schema.rdf#Classifier.Character> ;
  cdiscs:supportedBySDTMIG "true"^^xsd:boolean ;
  cdiscs:supportedBySEND "true"^^xsd:boolean ;
.
<https://raw.githubusercontent.com/phuse-org/CTDasRDF/master/data/rdf/sdtm-1-3.ttl#DataElement.Finding.--BODSYS>
  rdf:type <http://rdf.cdisc.org/mms#DataElement> ;
  <http://rdf.cdisc.org/mms#context> sdtm-1-3:FindingVariables ;
  <http://rdf.cdisc.org/mms#dataElementDescription> "Body System or Organ Class that is involved for a finding from the standard hierarchy for dictionary-coded results. Example: MedDRA SOC."^^xsd:string ;
  <http://rdf.cdisc.org/mms#dataElementLabel> "Body System or Organ Class"^^xsd:string ;
  <http://rdf.cdisc.org/mms#dataElementName> "--BODSYS"^^xsd:string ;
  <http://rdf.cdisc.org/mms#dataElementType> "xsd:string"^^xsd:anySimpleType ;
  <http://rdf.cdisc.org/mms#ordinal> "7"^^xsd:positiveInteger ;
  cdiscs:dataElementRole <https://raw.githubusercontent.com/phuse-org/CTDasRDF/master/data/rdf/sdtm-1-3.ttl#Classifier.RecordQualifier> ;
  cdiscs:dataElementType <https://raw.githubusercontent.com/phuse-org/CTDasRDF/master/data/rdf/ct-schema.rdf#Classifier.Character> ;
  cdiscs:supportedBySDTMIG "true"^^xsd:boolean ;
  cdiscs:supportedBySEND "true"^^xsd:boolean ;
.
<https://raw.githubusercontent.com/phuse-org/CTDasRDF/master/data/rdf/sdtm-1-3.ttl#DataElement.Finding.--CAT>
  rdf:type <http://rdf.cdisc.org/mms#DataElement> ;
  <http://rdf.cdisc.org/mms#context> sdtm-1-3:FindingVariables ;
  <http://rdf.cdisc.org/mms#dataElementDescription> "Used to define a category of topic-variable values. Examples: HEMATOLOGY, URINALYSIS, CHEMISTRY, HAMILTON DEPRESSION SCALE, SF36."^^xsd:string ;
  <http://rdf.cdisc.org/mms#dataElementLabel> "Category"^^xsd:string ;
  <http://rdf.cdisc.org/mms#dataElementName> "--CAT"^^xsd:string ;
  <http://rdf.cdisc.org/mms#dataElementType> "xsd:string"^^xsd:anySimpleType ;
  <http://rdf.cdisc.org/mms#ordinal> "4"^^xsd:positiveInteger ;
  cdiscs:dataElementRole <https://raw.githubusercontent.com/phuse-org/CTDasRDF/master/data/rdf/sdtm-1-3.ttl#Classifier.GroupingQualifier> ;
  cdiscs:dataElementType <https://raw.githubusercontent.com/phuse-org/CTDasRDF/master/data/rdf/ct-schema.rdf#Classifier.Character> ;
  cdiscs:supportedBySDTMIG "true"^^xsd:boolean ;
  cdiscs:supportedBySEND "true"^^xsd:boolean ;
.
<https://raw.githubusercontent.com/phuse-org/CTDasRDF/master/data/rdf/sdtm-1-3.ttl#DataElement.Finding.--CSTATE>
  rdf:type <http://rdf.cdisc.org/mms#DataElement> ;
  <http://rdf.cdisc.org/mms#context> sdtm-1-3:FindingVariables ;
  <http://rdf.cdisc.org/mms#dataElementDescription> "The consciousness state of the subject at the time of measurement. Examples: CONSCIOUS, SEMI-CONSCIOUS, UNCONSCIOUS."^^xsd:string ;
  <http://rdf.cdisc.org/mms#dataElementLabel> "Consciousness State"^^xsd:string ;
  <http://rdf.cdisc.org/mms#dataElementName> "--CSTATE"^^xsd:string ;
  <http://rdf.cdisc.org/mms#dataElementType> "xsd:string"^^xsd:anySimpleType ;
  <http://rdf.cdisc.org/mms#ordinal> "35"^^xsd:positiveInteger ;
  cdiscs:dataElementRole <https://raw.githubusercontent.com/phuse-org/CTDasRDF/master/data/rdf/sdtm-1-3.ttl#Classifier.RecordQualifier> ;
  cdiscs:dataElementType <https://raw.githubusercontent.com/phuse-org/CTDasRDF/master/data/rdf/ct-schema.rdf#Classifier.Character> ;
  cdiscs:supportedBySDTMIG "true"^^xsd:boolean ;
  cdiscs:supportedBySEND "true"^^xsd:boolean ;
.
<https://raw.githubusercontent.com/phuse-org/CTDasRDF/master/data/rdf/sdtm-1-3.ttl#DataElement.Finding.--DIR>
  rdf:type <http://rdf.cdisc.org/mms#DataElement> ;
  <http://rdf.cdisc.org/mms#context> sdtm-1-3:FindingVariables ;
  <http://rdf.cdisc.org/mms#dataElementDescription> "Qualifier for anatomical location or specimen further detailing directionality. Examples: ANTERIOR, LOWER, PROXIMAL."^^xsd:string ;
  <http://rdf.cdisc.org/mms#dataElementLabel> "Directionality"^^xsd:string ;
  <http://rdf.cdisc.org/mms#dataElementName> "--DIR"^^xsd:string ;
  <http://rdf.cdisc.org/mms#dataElementType> "xsd:string"^^xsd:anySimpleType ;
  <http://rdf.cdisc.org/mms#ordinal> "31"^^xsd:positiveInteger ;
  cdiscs:dataElementRole <https://raw.githubusercontent.com/phuse-org/CTDasRDF/master/data/rdf/sdtm-1-3.ttl#Classifier.VariableQualifier> ;
  cdiscs:dataElementType <https://raw.githubusercontent.com/phuse-org/CTDasRDF/master/data/rdf/ct-schema.rdf#Classifier.Character> ;
  cdiscs:qualifies <https://raw.githubusercontent.com/phuse-org/CTDasRDF/master/data/rdf/sdtm-1-3.ttl#DataElement.Finding.--LOC> ;
  cdiscs:supportedBySDTMIG "true"^^xsd:boolean ;
  cdiscs:supportedBySEND "true"^^xsd:boolean ;
.
<https://raw.githubusercontent.com/phuse-org/CTDasRDF/master/data/rdf/sdtm-1-3.ttl#DataElement.Finding.--DRVFL>
  rdf:type <http://rdf.cdisc.org/mms#DataElement> ;
  <http://rdf.cdisc.org/mms#context> sdtm-1-3:FindingVariables ;
  <http://rdf.cdisc.org/mms#dataElementDescription> "Used to indicate a derived record (e.g., a record that represents the average of other records such as a computed baseline). Should be Y or null."^^xsd:string ;
  <http://rdf.cdisc.org/mms#dataElementLabel> "Derived Flag"^^xsd:string ;
  <http://rdf.cdisc.org/mms#dataElementName> "--DRVFL"^^xsd:string ;
  <http://rdf.cdisc.org/mms#dataElementType> "xsd:string"^^xsd:anySimpleType ;
  <http://rdf.cdisc.org/mms#ordinal> "38"^^xsd:positiveInteger ;
  cdiscs:dataElementRole <https://raw.githubusercontent.com/phuse-org/CTDasRDF/master/data/rdf/sdtm-1-3.ttl#Classifier.RecordQualifier> ;
  cdiscs:dataElementType <https://raw.githubusercontent.com/phuse-org/CTDasRDF/master/data/rdf/ct-schema.rdf#Classifier.Character> ;
  cdiscs:supportedBySDTMIG "true"^^xsd:boolean ;
  cdiscs:supportedBySEND "true"^^xsd:boolean ;
.
<https://raw.githubusercontent.com/phuse-org/CTDasRDF/master/data/rdf/sdtm-1-3.ttl#DataElement.Finding.--DTHREL>
  rdf:type <http://rdf.cdisc.org/mms#DataElement> ;
  <http://rdf.cdisc.org/mms#context> sdtm-1-3:FindingVariables ;
  <http://rdf.cdisc.org/mms#dataElementDescription> "Describes the relationship of a particular finding to the death of a subject."^^xsd:string ;
  <http://rdf.cdisc.org/mms#dataElementLabel> "Relationship to Death"^^xsd:string ;
  <http://rdf.cdisc.org/mms#dataElementName> "--DTHREL"^^xsd:string ;
  <http://rdf.cdisc.org/mms#dataElementType> "xsd:string"^^xsd:anySimpleType ;
  <http://rdf.cdisc.org/mms#ordinal> "45"^^xsd:positiveInteger ;
  cdiscs:dataElementRole <https://raw.githubusercontent.com/phuse-org/CTDasRDF/master/data/rdf/sdtm-1-3.ttl#Classifier.RecordQualifier> ;
  cdiscs:dataElementType <https://raw.githubusercontent.com/phuse-org/CTDasRDF/master/data/rdf/ct-schema.rdf#Classifier.Character> ;
  cdiscs:supportedBySDTMIG "false"^^xsd:boolean ;
  cdiscs:supportedBySEND "true"^^xsd:boolean ;
.
<https://raw.githubusercontent.com/phuse-org/CTDasRDF/master/data/rdf/sdtm-1-3.ttl#DataElement.Finding.--EVAL>
  rdf:type <http://rdf.cdisc.org/mms#DataElement> ;
  <http://rdf.cdisc.org/mms#context> sdtm-1-3:FindingVariables ;
  <http://rdf.cdisc.org/mms#dataElementDescription> "Role of the person who provided the evaluation. Used only for results that are subjective (e.g., assigned by a person or a group). Examples: ADJUDICATION COMMITTEE, INDEPENDENT ASSESSOR, RADIOLOGIST."^^xsd:string ;
  <http://rdf.cdisc.org/mms#dataElementLabel> "Evaluator"^^xsd:string ;
  <http://rdf.cdisc.org/mms#dataElementName> "--EVAL"^^xsd:string ;
  <http://rdf.cdisc.org/mms#dataElementType> "xsd:string"^^xsd:anySimpleType ;
  <http://rdf.cdisc.org/mms#ordinal> "39"^^xsd:positiveInteger ;
  cdiscs:dataElementRole <https://raw.githubusercontent.com/phuse-org/CTDasRDF/master/data/rdf/sdtm-1-3.ttl#Classifier.RecordQualifier> ;
  cdiscs:dataElementType <https://raw.githubusercontent.com/phuse-org/CTDasRDF/master/data/rdf/ct-schema.rdf#Classifier.Character> ;
  cdiscs:supportedBySDTMIG "true"^^xsd:boolean ;
  cdiscs:supportedBySEND "true"^^xsd:boolean ;
.
<https://raw.githubusercontent.com/phuse-org/CTDasRDF/master/data/rdf/sdtm-1-3.ttl#DataElement.Finding.--EVALID>
  rdf:type <http://rdf.cdisc.org/mms#DataElement> ;
  <http://rdf.cdisc.org/mms#context> sdtm-1-3:FindingVariables ;
  <http://rdf.cdisc.org/mms#dataElementDescription> "Used to distinguish multiple evaluators with the same role recorded in --EVAL. Examples: RADIOLOGIST1 or RADIOLOGIST2."^^xsd:string ;
  <http://rdf.cdisc.org/mms#dataElementLabel> "Evaluator Identifier"^^xsd:string ;
  <http://rdf.cdisc.org/mms#dataElementName> "--EVALID"^^xsd:string ;
  <http://rdf.cdisc.org/mms#dataElementType> "xsd:string"^^xsd:anySimpleType ;
  <http://rdf.cdisc.org/mms#ordinal> "40"^^xsd:positiveInteger ;
  cdiscs:dataElementRole <https://raw.githubusercontent.com/phuse-org/CTDasRDF/master/data/rdf/sdtm-1-3.ttl#Classifier.VariableQualifier> ;
  cdiscs:dataElementType <https://raw.githubusercontent.com/phuse-org/CTDasRDF/master/data/rdf/ct-schema.rdf#Classifier.Character> ;
  cdiscs:qualifies <https://raw.githubusercontent.com/phuse-org/CTDasRDF/master/data/rdf/sdtm-1-3.ttl#DataElement.Finding.--EVAL> ;
  cdiscs:supportedBySDTMIG "true"^^xsd:boolean ;
  cdiscs:supportedBySEND "true"^^xsd:boolean ;
.
<https://raw.githubusercontent.com/phuse-org/CTDasRDF/master/data/rdf/sdtm-1-3.ttl#DataElement.Finding.--EXCLFL>
  rdf:type <http://rdf.cdisc.org/mms#DataElement> ;
  <http://rdf.cdisc.org/mms#context> sdtm-1-3:FindingVariables ;
  <http://rdf.cdisc.org/mms#dataElementDescription> "Indicates whether the values in the result variables for this record should be excluded from summary statistical calculations such as Mean, Standard Deviation, and Count (and others). Expected to be Y or null.  --EXCLFL should not be used when --STAT is NOT DONE.  Not to be used with human clinical trials."^^xsd:string ;
  <http://rdf.cdisc.org/mms#dataElementLabel> "Exclude from Statistics"^^xsd:string ;
  <http://rdf.cdisc.org/mms#dataElementName> "--EXCLFL"^^xsd:string ;
  <http://rdf.cdisc.org/mms#dataElementType> "xsd:string"^^xsd:anySimpleType ;
  <http://rdf.cdisc.org/mms#ordinal> "47"^^xsd:positiveInteger ;
  cdiscs:dataElementRole <https://raw.githubusercontent.com/phuse-org/CTDasRDF/master/data/rdf/sdtm-1-3.ttl#Classifier.RecordQualifier> ;
  cdiscs:dataElementType <https://raw.githubusercontent.com/phuse-org/CTDasRDF/master/data/rdf/ct-schema.rdf#Classifier.Character> ;
  cdiscs:supportedBySDTMIG "false"^^xsd:boolean ;
  cdiscs:supportedBySEND "true"^^xsd:boolean ;
.
<https://raw.githubusercontent.com/phuse-org/CTDasRDF/master/data/rdf/sdtm-1-3.ttl#DataElement.Finding.--FAST>
  rdf:type <http://rdf.cdisc.org/mms#DataElement> ;
  <http://rdf.cdisc.org/mms#context> sdtm-1-3:FindingVariables ;
  <http://rdf.cdisc.org/mms#dataElementDescription> "Indicator used to identify fasting status. Valid values include Y, N, U or null if not relevant."^^xsd:string ;
  <http://rdf.cdisc.org/mms#dataElementLabel> "Fasting Status"^^xsd:string ;
  <http://rdf.cdisc.org/mms#dataElementName> "--FAST"^^xsd:string ;
  <http://rdf.cdisc.org/mms#dataElementType> "xsd:string"^^xsd:anySimpleType ;
  <http://rdf.cdisc.org/mms#ordinal> "37"^^xsd:positiveInteger ;
  cdiscs:dataElementRole <https://raw.githubusercontent.com/phuse-org/CTDasRDF/master/data/rdf/sdtm-1-3.ttl#Classifier.RecordQualifier> ;
  cdiscs:dataElementType <https://raw.githubusercontent.com/phuse-org/CTDasRDF/master/data/rdf/ct-schema.rdf#Classifier.Character> ;
  cdiscs:supportedBySDTMIG "true"^^xsd:boolean ;
  cdiscs:supportedBySEND "true"^^xsd:boolean ;
.
<https://raw.githubusercontent.com/phuse-org/CTDasRDF/master/data/rdf/sdtm-1-3.ttl#DataElement.Finding.--LAT>
  rdf:type <http://rdf.cdisc.org/mms#DataElement> ;
  <http://rdf.cdisc.org/mms#context> sdtm-1-3:FindingVariables ;
  <http://rdf.cdisc.org/mms#dataElementDescription> "Qualifier for anatomical location or specimen further detailing laterality. Examples: RIGHT, LEFT, BILATERAL."^^xsd:string ;
  <http://rdf.cdisc.org/mms#dataElementLabel> "Laterality"^^xsd:string ;
  <http://rdf.cdisc.org/mms#dataElementName> "--LAT"^^xsd:string ;
  <http://rdf.cdisc.org/mms#dataElementType> "xsd:string"^^xsd:anySimpleType ;
  <http://rdf.cdisc.org/mms#ordinal> "30"^^xsd:positiveInteger ;
  cdiscs:dataElementRole <https://raw.githubusercontent.com/phuse-org/CTDasRDF/master/data/rdf/sdtm-1-3.ttl#Classifier.VariableQualifier> ;
  cdiscs:dataElementType <https://raw.githubusercontent.com/phuse-org/CTDasRDF/master/data/rdf/ct-schema.rdf#Classifier.Character> ;
  cdiscs:qualifies <https://raw.githubusercontent.com/phuse-org/CTDasRDF/master/data/rdf/sdtm-1-3.ttl#DataElement.Finding.--LOC> ;
  cdiscs:supportedBySDTMIG "true"^^xsd:boolean ;
  cdiscs:supportedBySEND "true"^^xsd:boolean ;
.
<https://raw.githubusercontent.com/phuse-org/CTDasRDF/master/data/rdf/sdtm-1-3.ttl#DataElement.Finding.--LEAD>
  rdf:type <http://rdf.cdisc.org/mms#DataElement> ;
  <http://rdf.cdisc.org/mms#context> sdtm-1-3:FindingVariables ;
  <http://rdf.cdisc.org/mms#dataElementDescription> "Lead or leads identified to capture the measurement for a test from an instrument. Examples: LEAD I, LEAD V2, LEAD CM5."^^xsd:string ;
  <http://rdf.cdisc.org/mms#dataElementLabel> "Lead Identified to Collect Measurements"^^xsd:string ;
  <http://rdf.cdisc.org/mms#dataElementName> "--LEAD"^^xsd:string ;
  <http://rdf.cdisc.org/mms#dataElementType> "xsd:string"^^xsd:anySimpleType ;
  <http://rdf.cdisc.org/mms#ordinal> "34"^^xsd:positiveInteger ;
  cdiscs:dataElementRole <https://raw.githubusercontent.com/phuse-org/CTDasRDF/master/data/rdf/sdtm-1-3.ttl#Classifier.RecordQualifier> ;
  cdiscs:dataElementType <https://raw.githubusercontent.com/phuse-org/CTDasRDF/master/data/rdf/ct-schema.rdf#Classifier.Character> ;
  cdiscs:supportedBySDTMIG "true"^^xsd:boolean ;
  cdiscs:supportedBySEND "true"^^xsd:boolean ;
.
<https://raw.githubusercontent.com/phuse-org/CTDasRDF/master/data/rdf/sdtm-1-3.ttl#DataElement.Finding.--LLOQ>
  rdf:type <http://rdf.cdisc.org/mms#DataElement> ;
  <http://rdf.cdisc.org/mms#context> sdtm-1-3:FindingVariables ;
  <http://rdf.cdisc.org/mms#dataElementDescription> "Indicates the lower limit of quantitation for an assay. Units will be those used for --STRESU."^^xsd:string ;
  <http://rdf.cdisc.org/mms#dataElementLabel> "Lower Limit of Quantitation"^^xsd:string ;
  <http://rdf.cdisc.org/mms#dataElementName> "--LLOQ"^^xsd:string ;
  <http://rdf.cdisc.org/mms#dataElementType> "xsd:decimal"^^xsd:anySimpleType ;
  <http://rdf.cdisc.org/mms#ordinal> "46"^^xsd:positiveInteger ;
  cdiscs:dataElementRole <https://raw.githubusercontent.com/phuse-org/CTDasRDF/master/data/rdf/sdtm-1-3.ttl#Classifier.VariableQualifier> ;
  cdiscs:dataElementType <https://raw.githubusercontent.com/phuse-org/CTDasRDF/master/data/rdf/ct-schema.rdf#Classifier.Numeric> ;
  cdiscs:qualifies <https://raw.githubusercontent.com/phuse-org/CTDasRDF/master/data/rdf/sdtm-1-3.ttl#DataElement.Finding.--STRESC> ;
  cdiscs:qualifies <https://raw.githubusercontent.com/phuse-org/CTDasRDF/master/data/rdf/sdtm-1-3.ttl#DataElement.Finding.--STRESN> ;
  cdiscs:supportedBySDTMIG "true"^^xsd:boolean ;
  cdiscs:supportedBySEND "true"^^xsd:boolean ;
.
<https://raw.githubusercontent.com/phuse-org/CTDasRDF/master/data/rdf/sdtm-1-3.ttl#DataElement.Finding.--LOC>
  rdf:type <http://rdf.cdisc.org/mms#DataElement> ;
  <http://rdf.cdisc.org/mms#context> sdtm-1-3:FindingVariables ;
  <http://rdf.cdisc.org/mms#dataElementDescription> "Location relevant to the collection of the measurement. Examples: RECTAL for temperature,  ARM for blood pressure."^^xsd:string ;
  <http://rdf.cdisc.org/mms#dataElementLabel> "Location Used for the Measurement"^^xsd:string ;
  <http://rdf.cdisc.org/mms#dataElementName> "--LOC"^^xsd:string ;
  <http://rdf.cdisc.org/mms#dataElementType> "xsd:string"^^xsd:anySimpleType ;
  <http://rdf.cdisc.org/mms#ordinal> "29"^^xsd:positiveInteger ;
  cdiscs:dataElementRole <https://raw.githubusercontent.com/phuse-org/CTDasRDF/master/data/rdf/sdtm-1-3.ttl#Classifier.RecordQualifier> ;
  cdiscs:dataElementType <https://raw.githubusercontent.com/phuse-org/CTDasRDF/master/data/rdf/ct-schema.rdf#Classifier.Character> ;
  cdiscs:supportedBySDTMIG "true"^^xsd:boolean ;
  cdiscs:supportedBySEND "true"^^xsd:boolean ;
.
<https://raw.githubusercontent.com/phuse-org/CTDasRDF/master/data/rdf/sdtm-1-3.ttl#DataElement.Finding.--LOINC>
  rdf:type <http://rdf.cdisc.org/mms#DataElement> ;
  <http://rdf.cdisc.org/mms#context> sdtm-1-3:FindingVariables ;
  <http://rdf.cdisc.org/mms#dataElementDescription> "Logical Observation Identifiers Names and Codes (LOINC) code for the topic variable such as a lab test."^^xsd:string ;
  <http://rdf.cdisc.org/mms#dataElementLabel> "LOINC Code"^^xsd:string ;
  <http://rdf.cdisc.org/mms#dataElementName> "--LOINC"^^xsd:string ;
  <http://rdf.cdisc.org/mms#dataElementType> "xsd:string"^^xsd:anySimpleType ;
  <http://rdf.cdisc.org/mms#ordinal> "24"^^xsd:positiveInteger ;
  cdiscs:dataElementRole <https://raw.githubusercontent.com/phuse-org/CTDasRDF/master/data/rdf/sdtm-1-3.ttl#Classifier.SynonymQualifier> ;
  cdiscs:dataElementType <https://raw.githubusercontent.com/phuse-org/CTDasRDF/master/data/rdf/ct-schema.rdf#Classifier.Character> ;
  cdiscs:qualifies <https://raw.githubusercontent.com/phuse-org/CTDasRDF/master/data/rdf/sdtm-1-3.ttl#DataElement.Finding.--TESTCD> ;
  cdiscs:supportedBySDTMIG "true"^^xsd:boolean ;
  cdiscs:supportedBySEND "true"^^xsd:boolean ;
.
<https://raw.githubusercontent.com/phuse-org/CTDasRDF/master/data/rdf/sdtm-1-3.ttl#DataElement.Finding.--METHOD>
  rdf:type <http://rdf.cdisc.org/mms#DataElement> ;
  <http://rdf.cdisc.org/mms#context> sdtm-1-3:FindingVariables ;
  <http://rdf.cdisc.org/mms#dataElementDescription> "Method of the test or examination. Examples: EIA (Enzyme Immunoassay), ELECTROPHORESIS, DIPSTICK."^^xsd:string ;
  <http://rdf.cdisc.org/mms#dataElementLabel> "Method of Test or Examination"^^xsd:string ;
  <http://rdf.cdisc.org/mms#dataElementName> "--METHOD"^^xsd:string ;
  <http://rdf.cdisc.org/mms#dataElementType> "xsd:string"^^xsd:anySimpleType ;
  <http://rdf.cdisc.org/mms#ordinal> "33"^^xsd:positiveInteger ;
  cdiscs:dataElementRole <https://raw.githubusercontent.com/phuse-org/CTDasRDF/master/data/rdf/sdtm-1-3.ttl#Classifier.RecordQualifier> ;
  cdiscs:dataElementType <https://raw.githubusercontent.com/phuse-org/CTDasRDF/master/data/rdf/ct-schema.rdf#Classifier.Character> ;
  cdiscs:supportedBySDTMIG "true"^^xsd:boolean ;
  cdiscs:supportedBySEND "true"^^xsd:boolean ;
.
<https://raw.githubusercontent.com/phuse-org/CTDasRDF/master/data/rdf/sdtm-1-3.ttl#DataElement.Finding.--MODIFY>
  rdf:type <http://rdf.cdisc.org/mms#DataElement> ;
  <http://rdf.cdisc.org/mms#context> sdtm-1-3:FindingVariables ;
  <http://rdf.cdisc.org/mms#dataElementDescription> "If the value of --ORRES is modified for coding purposes, then the modified text is placed here."^^xsd:string ;
  <http://rdf.cdisc.org/mms#dataElementLabel> "Modified Term"^^xsd:string ;
  <http://rdf.cdisc.org/mms#dataElementName> "--MODIFY"^^xsd:string ;
  <http://rdf.cdisc.org/mms#dataElementType> "xsd:string"^^xsd:anySimpleType ;
  <http://rdf.cdisc.org/mms#ordinal> "3"^^xsd:positiveInteger ;
  cdiscs:dataElementRole <https://raw.githubusercontent.com/phuse-org/CTDasRDF/master/data/rdf/sdtm-1-3.ttl#Classifier.SynonymQualifier> ;
  cdiscs:dataElementType <https://raw.githubusercontent.com/phuse-org/CTDasRDF/master/data/rdf/ct-schema.rdf#Classifier.Character> ;
  cdiscs:qualifies <https://raw.githubusercontent.com/phuse-org/CTDasRDF/master/data/rdf/sdtm-1-3.ttl#DataElement.Finding.--ORRES> ;
  cdiscs:supportedBySDTMIG "true"^^xsd:boolean ;
  cdiscs:supportedBySEND "true"^^xsd:boolean ;
.
<https://raw.githubusercontent.com/phuse-org/CTDasRDF/master/data/rdf/sdtm-1-3.ttl#DataElement.Finding.--NAM>
  rdf:type <http://rdf.cdisc.org/mms#DataElement> ;
  <http://rdf.cdisc.org/mms#context> sdtm-1-3:FindingVariables ;
  <http://rdf.cdisc.org/mms#dataElementDescription> "Name or identifier of the vendor (e.g., laboratory) that provided the test results."^^xsd:string ;
  <http://rdf.cdisc.org/mms#dataElementLabel> "Laboratory/Vendor Name"^^xsd:string ;
  <http://rdf.cdisc.org/mms#dataElementName> "--NAM"^^xsd:string ;
  <http://rdf.cdisc.org/mms#dataElementType> "xsd:string"^^xsd:anySimpleType ;
  <http://rdf.cdisc.org/mms#ordinal> "23"^^xsd:positiveInteger ;
  cdiscs:dataElementRole <https://raw.githubusercontent.com/phuse-org/CTDasRDF/master/data/rdf/sdtm-1-3.ttl#Classifier.RecordQualifier> ;
  cdiscs:dataElementType <https://raw.githubusercontent.com/phuse-org/CTDasRDF/master/data/rdf/ct-schema.rdf#Classifier.Character> ;
  cdiscs:supportedBySDTMIG "true"^^xsd:boolean ;
  cdiscs:supportedBySEND "true"^^xsd:boolean ;
.
<https://raw.githubusercontent.com/phuse-org/CTDasRDF/master/data/rdf/sdtm-1-3.ttl#DataElement.Finding.--NRIND>
  rdf:type <http://rdf.cdisc.org/mms#DataElement> ;
  <http://rdf.cdisc.org/mms#context> sdtm-1-3:FindingVariables ;
  <http://rdf.cdisc.org/mms#dataElementDescription> "Used to indicate the value is outside the normal range or reference range. May be defined by --ORNRLO and --ORNRHI or other objective criteria. Examples: Y, N; HIGH, LOW; NORMAL; ABNORMAL."^^xsd:string ;
  <http://rdf.cdisc.org/mms#dataElementLabel> "Normal/Reference Range Indicator"^^xsd:string ;
  <http://rdf.cdisc.org/mms#dataElementName> "--NRIND"^^xsd:string ;
  <http://rdf.cdisc.org/mms#dataElementType> "xsd:string"^^xsd:anySimpleType ;
  <http://rdf.cdisc.org/mms#ordinal> "18"^^xsd:positiveInteger ;
  cdiscs:dataElementRole <https://raw.githubusercontent.com/phuse-org/CTDasRDF/master/data/rdf/sdtm-1-3.ttl#Classifier.VariableQualifier> ;
  cdiscs:dataElementType <https://raw.githubusercontent.com/phuse-org/CTDasRDF/master/data/rdf/ct-schema.rdf#Classifier.Character> ;
  cdiscs:qualifies <https://raw.githubusercontent.com/phuse-org/CTDasRDF/master/data/rdf/sdtm-1-3.ttl#DataElement.Finding.--ORRES> ;
  cdiscs:supportedBySDTMIG "true"^^xsd:boolean ;
  cdiscs:supportedBySEND "true"^^xsd:boolean ;
.
<https://raw.githubusercontent.com/phuse-org/CTDasRDF/master/data/rdf/sdtm-1-3.ttl#DataElement.Finding.--ORNRHI>
  rdf:type <http://rdf.cdisc.org/mms#DataElement> ;
  <http://rdf.cdisc.org/mms#context> sdtm-1-3:FindingVariables ;
  <http://rdf.cdisc.org/mms#dataElementDescription> "Upper end of normal range or reference range for results stored in --ORRES."^^xsd:string ;
  <http://rdf.cdisc.org/mms#dataElementLabel> "Normal Range Upper Limit-Original Units"^^xsd:string ;
  <http://rdf.cdisc.org/mms#dataElementName> "--ORNRHI"^^xsd:string ;
  <http://rdf.cdisc.org/mms#dataElementType> "xsd:string"^^xsd:anySimpleType ;
  <http://rdf.cdisc.org/mms#ordinal> "11"^^xsd:positiveInteger ;
  cdiscs:dataElementRole <https://raw.githubusercontent.com/phuse-org/CTDasRDF/master/data/rdf/sdtm-1-3.ttl#Classifier.VariableQualifier> ;
  cdiscs:dataElementType <https://raw.githubusercontent.com/phuse-org/CTDasRDF/master/data/rdf/ct-schema.rdf#Classifier.Character> ;
  cdiscs:qualifies <https://raw.githubusercontent.com/phuse-org/CTDasRDF/master/data/rdf/sdtm-1-3.ttl#DataElement.Finding.--ORRES> ;
  cdiscs:supportedBySDTMIG "true"^^xsd:boolean ;
  cdiscs:supportedBySEND "true"^^xsd:boolean ;
.
<https://raw.githubusercontent.com/phuse-org/CTDasRDF/master/data/rdf/sdtm-1-3.ttl#DataElement.Finding.--ORNRLO>
  rdf:type <http://rdf.cdisc.org/mms#DataElement> ;
  <http://rdf.cdisc.org/mms#context> sdtm-1-3:FindingVariables ;
  <http://rdf.cdisc.org/mms#dataElementDescription> "Lower end of normal range or reference range for results stored in --ORRES."^^xsd:string ;
  <http://rdf.cdisc.org/mms#dataElementLabel> "Normal Range Lower Limit-Original Units"^^xsd:string ;
  <http://rdf.cdisc.org/mms#dataElementName> "--ORNRLO"^^xsd:string ;
  <http://rdf.cdisc.org/mms#dataElementType> "xsd:string"^^xsd:anySimpleType ;
  <http://rdf.cdisc.org/mms#ordinal> "10"^^xsd:positiveInteger ;
  cdiscs:dataElementRole <https://raw.githubusercontent.com/phuse-org/CTDasRDF/master/data/rdf/sdtm-1-3.ttl#Classifier.VariableQualifier> ;
  cdiscs:dataElementType <https://raw.githubusercontent.com/phuse-org/CTDasRDF/master/data/rdf/ct-schema.rdf#Classifier.Character> ;
  cdiscs:qualifies <https://raw.githubusercontent.com/phuse-org/CTDasRDF/master/data/rdf/sdtm-1-3.ttl#DataElement.Finding.--ORRES> ;
  cdiscs:supportedBySDTMIG "true"^^xsd:boolean ;
  cdiscs:supportedBySEND "true"^^xsd:boolean ;
.
<https://raw.githubusercontent.com/phuse-org/CTDasRDF/master/data/rdf/sdtm-1-3.ttl#DataElement.Finding.--ORRES>
  rdf:type <http://rdf.cdisc.org/mms#DataElement> ;
  <http://rdf.cdisc.org/mms#context> sdtm-1-3:FindingVariables ;
  <http://rdf.cdisc.org/mms#dataElementDescription> "Result of the measurement or finding as originally received or collected. Examples: 120, <1, POS."^^xsd:string ;
  <http://rdf.cdisc.org/mms#dataElementLabel> "Result or Finding in Original Units"^^xsd:string ;
  <http://rdf.cdisc.org/mms#dataElementName> "--ORRES"^^xsd:string ;
  <http://rdf.cdisc.org/mms#dataElementType> "xsd:string"^^xsd:anySimpleType ;
  <http://rdf.cdisc.org/mms#ordinal> "8"^^xsd:positiveInteger ;
  cdiscs:dataElementRole <https://raw.githubusercontent.com/phuse-org/CTDasRDF/master/data/rdf/sdtm-1-3.ttl#Classifier.ResultQualifier> ;
  cdiscs:dataElementType <https://raw.githubusercontent.com/phuse-org/CTDasRDF/master/data/rdf/ct-schema.rdf#Classifier.Character> ;
  cdiscs:supportedBySDTMIG "true"^^xsd:boolean ;
  cdiscs:supportedBySEND "true"^^xsd:boolean ;
.
<https://raw.githubusercontent.com/phuse-org/CTDasRDF/master/data/rdf/sdtm-1-3.ttl#DataElement.Finding.--ORRESU>
  rdf:type <http://rdf.cdisc.org/mms#DataElement> ;
  <http://rdf.cdisc.org/mms#context> sdtm-1-3:FindingVariables ;
  <http://rdf.cdisc.org/mms#dataElementDescription> "Unit for --ORRES. Examples: IN, LB, kg/L."^^xsd:string ;
  <http://rdf.cdisc.org/mms#dataElementLabel> "Original Units"^^xsd:string ;
  <http://rdf.cdisc.org/mms#dataElementName> "--ORRESU"^^xsd:string ;
  <http://rdf.cdisc.org/mms#dataElementType> "xsd:string"^^xsd:anySimpleType ;
  <http://rdf.cdisc.org/mms#ordinal> "9"^^xsd:positiveInteger ;
  cdiscs:dataElementRole <https://raw.githubusercontent.com/phuse-org/CTDasRDF/master/data/rdf/sdtm-1-3.ttl#Classifier.VariableQualifier> ;
  cdiscs:dataElementType <https://raw.githubusercontent.com/phuse-org/CTDasRDF/master/data/rdf/ct-schema.rdf#Classifier.Character> ;
  cdiscs:qualifies <https://raw.githubusercontent.com/phuse-org/CTDasRDF/master/data/rdf/sdtm-1-3.ttl#DataElement.Finding.--ORRES> ;
  cdiscs:supportedBySDTMIG "true"^^xsd:boolean ;
  cdiscs:supportedBySEND "true"^^xsd:boolean ;
.
<https://raw.githubusercontent.com/phuse-org/CTDasRDF/master/data/rdf/sdtm-1-3.ttl#DataElement.Finding.--PORTOT>
  rdf:type <http://rdf.cdisc.org/mms#DataElement> ;
  <http://rdf.cdisc.org/mms#context> sdtm-1-3:FindingVariables ;
  <http://rdf.cdisc.org/mms#dataElementDescription> "Qualifier for anatomical location or specimen further detailing the distribution, which means arrangement of, apportioning of. . Examples: ENTIRE, SINGLE, SEGMENT, MANY."^^xsd:string ;
  <http://rdf.cdisc.org/mms#dataElementLabel> "Portion or Totality"^^xsd:string ;
  <http://rdf.cdisc.org/mms#dataElementName> "--PORTOT"^^xsd:string ;
  <http://rdf.cdisc.org/mms#dataElementType> "xsd:string"^^xsd:anySimpleType ;
  <http://rdf.cdisc.org/mms#ordinal> "32"^^xsd:positiveInteger ;
  cdiscs:dataElementRole <https://raw.githubusercontent.com/phuse-org/CTDasRDF/master/data/rdf/sdtm-1-3.ttl#Classifier.VariableQualifier> ;
  cdiscs:dataElementType <https://raw.githubusercontent.com/phuse-org/CTDasRDF/master/data/rdf/ct-schema.rdf#Classifier.Character> ;
  cdiscs:qualifies <https://raw.githubusercontent.com/phuse-org/CTDasRDF/master/data/rdf/sdtm-1-3.ttl#DataElement.Finding.--LOC> ;
  cdiscs:supportedBySDTMIG "true"^^xsd:boolean ;
  cdiscs:supportedBySEND "true"^^xsd:boolean ;
.
<https://raw.githubusercontent.com/phuse-org/CTDasRDF/master/data/rdf/sdtm-1-3.ttl#DataElement.Finding.--POS>
  rdf:type <http://rdf.cdisc.org/mms#DataElement> ;
  <http://rdf.cdisc.org/mms#context> sdtm-1-3:FindingVariables ;
  <http://rdf.cdisc.org/mms#dataElementDescription> "Position of the subject during a measurement or examination. Examples: SUPINE, STANDING, SITTING."^^xsd:string ;
  <http://rdf.cdisc.org/mms#dataElementLabel> "Position of Subject During Observation"^^xsd:string ;
  <http://rdf.cdisc.org/mms#dataElementName> "--POS"^^xsd:string ;
  <http://rdf.cdisc.org/mms#dataElementType> "xsd:string"^^xsd:anySimpleType ;
  <http://rdf.cdisc.org/mms#ordinal> "6"^^xsd:positiveInteger ;
  cdiscs:dataElementRole <https://raw.githubusercontent.com/phuse-org/CTDasRDF/master/data/rdf/sdtm-1-3.ttl#Classifier.RecordQualifier> ;
  cdiscs:dataElementType <https://raw.githubusercontent.com/phuse-org/CTDasRDF/master/data/rdf/ct-schema.rdf#Classifier.Character> ;
  cdiscs:supportedBySDTMIG "true"^^xsd:boolean ;
  cdiscs:supportedBySEND "true"^^xsd:boolean ;
.
<https://raw.githubusercontent.com/phuse-org/CTDasRDF/master/data/rdf/sdtm-1-3.ttl#DataElement.Finding.--REASEX>
  rdf:type <http://rdf.cdisc.org/mms#DataElement> ;
  <http://rdf.cdisc.org/mms#context> sdtm-1-3:FindingVariables ;
  <http://rdf.cdisc.org/mms#dataElementDescription> "Reason excluded from statistics. Used in conjunction with --EXCLFL when its value is Y. Not to be used with human clinical trials."^^xsd:string ;
  <http://rdf.cdisc.org/mms#dataElementLabel> "Reason for Exclusion from Statistics"^^xsd:string ;
  <http://rdf.cdisc.org/mms#dataElementName> "--REASEX"^^xsd:string ;
  <http://rdf.cdisc.org/mms#dataElementType> "xsd:string"^^xsd:anySimpleType ;
  <http://rdf.cdisc.org/mms#ordinal> "48"^^xsd:positiveInteger ;
  cdiscs:dataElementRole <https://raw.githubusercontent.com/phuse-org/CTDasRDF/master/data/rdf/sdtm-1-3.ttl#Classifier.RecordQualifier> ;
  cdiscs:dataElementType <https://raw.githubusercontent.com/phuse-org/CTDasRDF/master/data/rdf/ct-schema.rdf#Classifier.Character> ;
  cdiscs:supportedBySDTMIG "false"^^xsd:boolean ;
  cdiscs:supportedBySEND "true"^^xsd:boolean ;
.
<https://raw.githubusercontent.com/phuse-org/CTDasRDF/master/data/rdf/sdtm-1-3.ttl#DataElement.Finding.--REASND>
  rdf:type <http://rdf.cdisc.org/mms#DataElement> ;
  <http://rdf.cdisc.org/mms#context> sdtm-1-3:FindingVariables ;
  <http://rdf.cdisc.org/mms#dataElementDescription> "Reason not done.  Used in conjunction with --STAT when value is NOT DONE."^^xsd:string ;
  <http://rdf.cdisc.org/mms#dataElementLabel> "Reason Not Done"^^xsd:string ;
  <http://rdf.cdisc.org/mms#dataElementName> "--REASND"^^xsd:string ;
  <http://rdf.cdisc.org/mms#dataElementType> "xsd:string"^^xsd:anySimpleType ;
  <http://rdf.cdisc.org/mms#ordinal> "21"^^xsd:positiveInteger ;
  cdiscs:dataElementRole <https://raw.githubusercontent.com/phuse-org/CTDasRDF/master/data/rdf/sdtm-1-3.ttl#Classifier.RecordQualifier> ;
  cdiscs:dataElementType <https://raw.githubusercontent.com/phuse-org/CTDasRDF/master/data/rdf/ct-schema.rdf#Classifier.Character> ;
  cdiscs:supportedBySDTMIG "true"^^xsd:boolean ;
  cdiscs:supportedBySEND "true"^^xsd:boolean ;
.
<https://raw.githubusercontent.com/phuse-org/CTDasRDF/master/data/rdf/sdtm-1-3.ttl#DataElement.Finding.--RESCAT>
  rdf:type <http://rdf.cdisc.org/mms#DataElement> ;
  <http://rdf.cdisc.org/mms#context> sdtm-1-3:FindingVariables ;
  <http://rdf.cdisc.org/mms#dataElementDescription> "Used to categorize the result of a finding. Example: MALIGNANT or BENIGN for tumor findings."^^xsd:string ;
  <http://rdf.cdisc.org/mms#dataElementLabel> "Result Category"^^xsd:string ;
  <http://rdf.cdisc.org/mms#dataElementName> "--RESCAT"^^xsd:string ;
  <http://rdf.cdisc.org/mms#dataElementType> "xsd:string"^^xsd:anySimpleType ;
  <http://rdf.cdisc.org/mms#ordinal> "19"^^xsd:positiveInteger ;
  cdiscs:dataElementRole <https://raw.githubusercontent.com/phuse-org/CTDasRDF/master/data/rdf/sdtm-1-3.ttl#Classifier.VariableQualifier> ;
  cdiscs:dataElementType <https://raw.githubusercontent.com/phuse-org/CTDasRDF/master/data/rdf/ct-schema.rdf#Classifier.Character> ;
  cdiscs:qualifies <https://raw.githubusercontent.com/phuse-org/CTDasRDF/master/data/rdf/sdtm-1-3.ttl#DataElement.Finding.--ORRES> ;
  cdiscs:supportedBySDTMIG "true"^^xsd:boolean ;
  cdiscs:supportedBySEND "true"^^xsd:boolean ;
.
<https://raw.githubusercontent.com/phuse-org/CTDasRDF/master/data/rdf/sdtm-1-3.ttl#DataElement.Finding.--SCAT>
  rdf:type <http://rdf.cdisc.org/mms#DataElement> ;
  <http://rdf.cdisc.org/mms#context> sdtm-1-3:FindingVariables ;
  <http://rdf.cdisc.org/mms#dataElementDescription> "Used to define a further categorization of --CAT values. Example: DIFFERENTIAL."^^xsd:string ;
  <http://rdf.cdisc.org/mms#dataElementLabel> "Subcategory"^^xsd:string ;
  <http://rdf.cdisc.org/mms#dataElementName> "--SCAT"^^xsd:string ;
  <http://rdf.cdisc.org/mms#dataElementType> "xsd:string"^^xsd:anySimpleType ;
  <http://rdf.cdisc.org/mms#ordinal> "5"^^xsd:positiveInteger ;
  cdiscs:dataElementRole <https://raw.githubusercontent.com/phuse-org/CTDasRDF/master/data/rdf/sdtm-1-3.ttl#Classifier.GroupingQualifier> ;
  cdiscs:dataElementType <https://raw.githubusercontent.com/phuse-org/CTDasRDF/master/data/rdf/ct-schema.rdf#Classifier.Character> ;
  cdiscs:supportedBySDTMIG "true"^^xsd:boolean ;
  cdiscs:supportedBySEND "true"^^xsd:boolean ;
.
<https://raw.githubusercontent.com/phuse-org/CTDasRDF/master/data/rdf/sdtm-1-3.ttl#DataElement.Finding.--SEV>
  rdf:type <http://rdf.cdisc.org/mms#DataElement> ;
  <http://rdf.cdisc.org/mms#context> sdtm-1-3:FindingVariables ;
  <http://rdf.cdisc.org/mms#dataElementDescription> "Describes the severity or intensity of a particular finding. Examples: MILD, MODERATE, SEVERE."^^xsd:string ;
  <http://rdf.cdisc.org/mms#dataElementLabel> "Severity"^^xsd:string ;
  <http://rdf.cdisc.org/mms#dataElementName> "--SEV"^^xsd:string ;
  <http://rdf.cdisc.org/mms#dataElementType> "xsd:string"^^xsd:anySimpleType ;
  <http://rdf.cdisc.org/mms#ordinal> "44"^^xsd:positiveInteger ;
  cdiscs:dataElementRole <https://raw.githubusercontent.com/phuse-org/CTDasRDF/master/data/rdf/sdtm-1-3.ttl#Classifier.RecordQualifier> ;
  cdiscs:dataElementType <https://raw.githubusercontent.com/phuse-org/CTDasRDF/master/data/rdf/ct-schema.rdf#Classifier.Character> ;
  cdiscs:supportedBySDTMIG "true"^^xsd:boolean ;
  cdiscs:supportedBySEND "true"^^xsd:boolean ;
.
<https://raw.githubusercontent.com/phuse-org/CTDasRDF/master/data/rdf/sdtm-1-3.ttl#DataElement.Finding.--SPCCND>
  rdf:type <http://rdf.cdisc.org/mms#DataElement> ;
  <http://rdf.cdisc.org/mms#context> sdtm-1-3:FindingVariables ;
  <http://rdf.cdisc.org/mms#dataElementDescription> "Defines the condition of the specimen. Example: CLOUDY."^^xsd:string ;
  <http://rdf.cdisc.org/mms#dataElementLabel> "Specimen Condition"^^xsd:string ;
  <http://rdf.cdisc.org/mms#dataElementName> "--SPCCND"^^xsd:string ;
  <http://rdf.cdisc.org/mms#dataElementType> "xsd:string"^^xsd:anySimpleType ;
  <http://rdf.cdisc.org/mms#ordinal> "27"^^xsd:positiveInteger ;
  cdiscs:dataElementRole <https://raw.githubusercontent.com/phuse-org/CTDasRDF/master/data/rdf/sdtm-1-3.ttl#Classifier.RecordQualifier> ;
  cdiscs:dataElementType <https://raw.githubusercontent.com/phuse-org/CTDasRDF/master/data/rdf/ct-schema.rdf#Classifier.Character> ;
  cdiscs:supportedBySDTMIG "true"^^xsd:boolean ;
  cdiscs:supportedBySEND "true"^^xsd:boolean ;
.
<https://raw.githubusercontent.com/phuse-org/CTDasRDF/master/data/rdf/sdtm-1-3.ttl#DataElement.Finding.--SPCUFL>
  rdf:type <http://rdf.cdisc.org/mms#DataElement> ;
  <http://rdf.cdisc.org/mms#context> sdtm-1-3:FindingVariables ;
  <http://rdf.cdisc.org/mms#dataElementDescription> "Describes the usability of the specimen for the test. The value will be N if the specimen is not usable, and null if the specimen is usable."^^xsd:string ;
  <http://rdf.cdisc.org/mms#dataElementLabel> "Specimen Usability for the Test"^^xsd:string ;
  <http://rdf.cdisc.org/mms#dataElementName> "--SPCUFL"^^xsd:string ;
  <http://rdf.cdisc.org/mms#dataElementType> "xsd:string"^^xsd:anySimpleType ;
  <http://rdf.cdisc.org/mms#ordinal> "28"^^xsd:positiveInteger ;
  cdiscs:dataElementRole <https://raw.githubusercontent.com/phuse-org/CTDasRDF/master/data/rdf/sdtm-1-3.ttl#Classifier.RecordQualifier> ;
  cdiscs:dataElementType <https://raw.githubusercontent.com/phuse-org/CTDasRDF/master/data/rdf/ct-schema.rdf#Classifier.Character> ;
  cdiscs:supportedBySDTMIG "true"^^xsd:boolean ;
  cdiscs:supportedBySEND "true"^^xsd:boolean ;
.
<https://raw.githubusercontent.com/phuse-org/CTDasRDF/master/data/rdf/sdtm-1-3.ttl#DataElement.Finding.--SPEC>
  rdf:type <http://rdf.cdisc.org/mms#DataElement> ;
  <http://rdf.cdisc.org/mms#context> sdtm-1-3:FindingVariables ;
  <http://rdf.cdisc.org/mms#dataElementDescription> "Defines the type of specimen used for a measurement. Examples: SERUM, PLASMA, URINE."^^xsd:string ;
  <http://rdf.cdisc.org/mms#dataElementLabel> "Specimen Material Type"^^xsd:string ;
  <http://rdf.cdisc.org/mms#dataElementName> "--SPEC"^^xsd:string ;
  <http://rdf.cdisc.org/mms#dataElementType> "xsd:string"^^xsd:anySimpleType ;
  <http://rdf.cdisc.org/mms#ordinal> "25"^^xsd:positiveInteger ;
  cdiscs:dataElementRole <https://raw.githubusercontent.com/phuse-org/CTDasRDF/master/data/rdf/sdtm-1-3.ttl#Classifier.RecordQualifier> ;
  cdiscs:dataElementType <https://raw.githubusercontent.com/phuse-org/CTDasRDF/master/data/rdf/ct-schema.rdf#Classifier.Character> ;
  cdiscs:supportedBySDTMIG "true"^^xsd:boolean ;
  cdiscs:supportedBySEND "true"^^xsd:boolean ;
.
<https://raw.githubusercontent.com/phuse-org/CTDasRDF/master/data/rdf/sdtm-1-3.ttl#DataElement.Finding.--STAT>
  rdf:type <http://rdf.cdisc.org/mms#DataElement> ;
  <http://rdf.cdisc.org/mms#context> sdtm-1-3:FindingVariables ;
  <http://rdf.cdisc.org/mms#dataElementDescription> "Used to indicate that a question was not asked or a test was not done, or a test was attempted but did not generate a result. Should be null or have a value of NOT DONE."^^xsd:string ;
  <http://rdf.cdisc.org/mms#dataElementLabel> "Completion Status"^^xsd:string ;
  <http://rdf.cdisc.org/mms#dataElementName> "--STAT"^^xsd:string ;
  <http://rdf.cdisc.org/mms#dataElementType> "xsd:string"^^xsd:anySimpleType ;
  <http://rdf.cdisc.org/mms#ordinal> "20"^^xsd:positiveInteger ;
  cdiscs:dataElementRole <https://raw.githubusercontent.com/phuse-org/CTDasRDF/master/data/rdf/sdtm-1-3.ttl#Classifier.RecordQualifier> ;
  cdiscs:dataElementType <https://raw.githubusercontent.com/phuse-org/CTDasRDF/master/data/rdf/ct-schema.rdf#Classifier.Character> ;
  cdiscs:supportedBySDTMIG "true"^^xsd:boolean ;
  cdiscs:supportedBySEND "true"^^xsd:boolean ;
.
<https://raw.githubusercontent.com/phuse-org/CTDasRDF/master/data/rdf/sdtm-1-3.ttl#DataElement.Finding.--STNRC>
  rdf:type <http://rdf.cdisc.org/mms#DataElement> ;
  <http://rdf.cdisc.org/mms#context> sdtm-1-3:FindingVariables ;
  <http://rdf.cdisc.org/mms#dataElementDescription> "Normal range or reference range for results stored in --STRESC that are character in ordinal or categorical scale. Example: Negative to Trace."^^xsd:string ;
  <http://rdf.cdisc.org/mms#dataElementLabel> "Normal Range for Character Results"^^xsd:string ;
  <http://rdf.cdisc.org/mms#dataElementName> "--STNRC"^^xsd:string ;
  <http://rdf.cdisc.org/mms#dataElementType> "xsd:string"^^xsd:anySimpleType ;
  <http://rdf.cdisc.org/mms#ordinal> "17"^^xsd:positiveInteger ;
  cdiscs:dataElementRole <https://raw.githubusercontent.com/phuse-org/CTDasRDF/master/data/rdf/sdtm-1-3.ttl#Classifier.VariableQualifier> ;
  cdiscs:dataElementType <https://raw.githubusercontent.com/phuse-org/CTDasRDF/master/data/rdf/ct-schema.rdf#Classifier.Character> ;
  cdiscs:qualifies <https://raw.githubusercontent.com/phuse-org/CTDasRDF/master/data/rdf/sdtm-1-3.ttl#DataElement.Finding.--STRESC> ;
  cdiscs:qualifies <https://raw.githubusercontent.com/phuse-org/CTDasRDF/master/data/rdf/sdtm-1-3.ttl#DataElement.Finding.--STRESN> ;
  cdiscs:supportedBySDTMIG "true"^^xsd:boolean ;
  cdiscs:supportedBySEND "true"^^xsd:boolean ;
.
<https://raw.githubusercontent.com/phuse-org/CTDasRDF/master/data/rdf/sdtm-1-3.ttl#DataElement.Finding.--STNRHI>
  rdf:type <http://rdf.cdisc.org/mms#DataElement> ;
  <http://rdf.cdisc.org/mms#context> sdtm-1-3:FindingVariables ;
  <http://rdf.cdisc.org/mms#dataElementDescription> "Upper end of normal range or reference range for standardized results (e.g., --STRESC, --STRESN) represented in standardized units (--STRESU)."^^xsd:string ;
  <http://rdf.cdisc.org/mms#dataElementLabel> "Normal Range Upper Limit-Standard Units"^^xsd:string ;
  <http://rdf.cdisc.org/mms#dataElementName> "--STNRHI"^^xsd:string ;
  <http://rdf.cdisc.org/mms#dataElementType> "xsd:decimal"^^xsd:anySimpleType ;
  <http://rdf.cdisc.org/mms#ordinal> "16"^^xsd:positiveInteger ;
  cdiscs:dataElementRole <https://raw.githubusercontent.com/phuse-org/CTDasRDF/master/data/rdf/sdtm-1-3.ttl#Classifier.VariableQualifier> ;
  cdiscs:dataElementType <https://raw.githubusercontent.com/phuse-org/CTDasRDF/master/data/rdf/ct-schema.rdf#Classifier.Numeric> ;
  cdiscs:qualifies <https://raw.githubusercontent.com/phuse-org/CTDasRDF/master/data/rdf/sdtm-1-3.ttl#DataElement.Finding.--STRESC> ;
  cdiscs:qualifies <https://raw.githubusercontent.com/phuse-org/CTDasRDF/master/data/rdf/sdtm-1-3.ttl#DataElement.Finding.--STRESN> ;
  cdiscs:supportedBySDTMIG "true"^^xsd:boolean ;
  cdiscs:supportedBySEND "true"^^xsd:boolean ;
.
<https://raw.githubusercontent.com/phuse-org/CTDasRDF/master/data/rdf/sdtm-1-3.ttl#DataElement.Finding.--STNRLO>
  rdf:type <http://rdf.cdisc.org/mms#DataElement> ;
  <http://rdf.cdisc.org/mms#context> sdtm-1-3:FindingVariables ;
  <http://rdf.cdisc.org/mms#dataElementDescription> "Lower end of normal range or reference range for standardized results (e.g., --STRESC, --STRESN) represented in standardized units (--STRESU)."^^xsd:string ;
  <http://rdf.cdisc.org/mms#dataElementLabel> "Normal Range Lower Limit-Standard Units"^^xsd:string ;
  <http://rdf.cdisc.org/mms#dataElementName> "--STNRLO"^^xsd:string ;
  <http://rdf.cdisc.org/mms#dataElementType> "xsd:decimal"^^xsd:anySimpleType ;
  <http://rdf.cdisc.org/mms#ordinal> "15"^^xsd:positiveInteger ;
  cdiscs:dataElementRole <https://raw.githubusercontent.com/phuse-org/CTDasRDF/master/data/rdf/sdtm-1-3.ttl#Classifier.VariableQualifier> ;
  cdiscs:dataElementType <https://raw.githubusercontent.com/phuse-org/CTDasRDF/master/data/rdf/ct-schema.rdf#Classifier.Numeric> ;
  cdiscs:qualifies <https://raw.githubusercontent.com/phuse-org/CTDasRDF/master/data/rdf/sdtm-1-3.ttl#DataElement.Finding.--STRESC> ;
  cdiscs:qualifies <https://raw.githubusercontent.com/phuse-org/CTDasRDF/master/data/rdf/sdtm-1-3.ttl#DataElement.Finding.--STRESN> ;
  cdiscs:supportedBySDTMIG "true"^^xsd:boolean ;
  cdiscs:supportedBySEND "true"^^xsd:boolean ;
.
<https://raw.githubusercontent.com/phuse-org/CTDasRDF/master/data/rdf/sdtm-1-3.ttl#DataElement.Finding.--STRESC>
  rdf:type <http://rdf.cdisc.org/mms#DataElement> ;
  <http://rdf.cdisc.org/mms#context> sdtm-1-3:FindingVariables ;
  <http://rdf.cdisc.org/mms#dataElementDescription> "Contains the result value for all findings, copied or derived from --ORRES in a standard format or in standard units. --STRESC should store all results or findings in character format; if results are numeric, they should also be stored in numeric format in --STRESN. For example, if various tests have results \"NONE\", \"NEG\", and \"NEGATIVE\" in --ORRES and these results effectively have the same meaning, they could be represented in standard format in --STRESC as \"NEGATIVE\"."^^xsd:string ;
  <http://rdf.cdisc.org/mms#dataElementLabel> "Result or Finding in Standard Format"^^xsd:string ;
  <http://rdf.cdisc.org/mms#dataElementName> "--STRESC"^^xsd:string ;
  <http://rdf.cdisc.org/mms#dataElementType> "xsd:string"^^xsd:anySimpleType ;
  <http://rdf.cdisc.org/mms#ordinal> "12"^^xsd:positiveInteger ;
  cdiscs:dataElementRole <https://raw.githubusercontent.com/phuse-org/CTDasRDF/master/data/rdf/sdtm-1-3.ttl#Classifier.ResultQualifier> ;
  cdiscs:dataElementType <https://raw.githubusercontent.com/phuse-org/CTDasRDF/master/data/rdf/ct-schema.rdf#Classifier.Character> ;
  cdiscs:supportedBySDTMIG "true"^^xsd:boolean ;
  cdiscs:supportedBySEND "true"^^xsd:boolean ;
.
<https://raw.githubusercontent.com/phuse-org/CTDasRDF/master/data/rdf/sdtm-1-3.ttl#DataElement.Finding.--STRESN>
  rdf:type <http://rdf.cdisc.org/mms#DataElement> ;
  <http://rdf.cdisc.org/mms#context> sdtm-1-3:FindingVariables ;
  <http://rdf.cdisc.org/mms#dataElementDescription> "Used for continuous or numeric results or findings in standard format; copied in numeric format from --STRESC. --STRESN should store all numeric test results or findings."^^xsd:string ;
  <http://rdf.cdisc.org/mms#dataElementLabel> "Numeric Result/Finding in Standard Units"^^xsd:string ;
  <http://rdf.cdisc.org/mms#dataElementName> "--STRESN"^^xsd:string ;
  <http://rdf.cdisc.org/mms#dataElementType> "xsd:decimal"^^xsd:anySimpleType ;
  <http://rdf.cdisc.org/mms#ordinal> "13"^^xsd:positiveInteger ;
  cdiscs:dataElementRole <https://raw.githubusercontent.com/phuse-org/CTDasRDF/master/data/rdf/sdtm-1-3.ttl#Classifier.ResultQualifier> ;
  cdiscs:dataElementType <https://raw.githubusercontent.com/phuse-org/CTDasRDF/master/data/rdf/ct-schema.rdf#Classifier.Numeric> ;
  cdiscs:supportedBySDTMIG "true"^^xsd:boolean ;
  cdiscs:supportedBySEND "true"^^xsd:boolean ;
.
<https://raw.githubusercontent.com/phuse-org/CTDasRDF/master/data/rdf/sdtm-1-3.ttl#DataElement.Finding.--STRESU>
  rdf:type <http://rdf.cdisc.org/mms#DataElement> ;
  <http://rdf.cdisc.org/mms#context> sdtm-1-3:FindingVariables ;
  <http://rdf.cdisc.org/mms#dataElementDescription> "Standardized units used for --STRESC and --STRESN. Example: mol/L."^^xsd:string ;
  <http://rdf.cdisc.org/mms#dataElementLabel> "Standard Units"^^xsd:string ;
  <http://rdf.cdisc.org/mms#dataElementName> "--STRESU"^^xsd:string ;
  <http://rdf.cdisc.org/mms#dataElementType> "xsd:string"^^xsd:anySimpleType ;
  <http://rdf.cdisc.org/mms#ordinal> "14"^^xsd:positiveInteger ;
  cdiscs:dataElementRole <https://raw.githubusercontent.com/phuse-org/CTDasRDF/master/data/rdf/sdtm-1-3.ttl#Classifier.VariableQualifier> ;
  cdiscs:dataElementType <https://raw.githubusercontent.com/phuse-org/CTDasRDF/master/data/rdf/ct-schema.rdf#Classifier.Character> ;
  cdiscs:qualifies <https://raw.githubusercontent.com/phuse-org/CTDasRDF/master/data/rdf/sdtm-1-3.ttl#DataElement.Finding.--STRESC> ;
  cdiscs:qualifies <https://raw.githubusercontent.com/phuse-org/CTDasRDF/master/data/rdf/sdtm-1-3.ttl#DataElement.Finding.--STRESN> ;
  cdiscs:supportedBySDTMIG "true"^^xsd:boolean ;
  cdiscs:supportedBySEND "true"^^xsd:boolean ;
.
<https://raw.githubusercontent.com/phuse-org/CTDasRDF/master/data/rdf/sdtm-1-3.ttl#DataElement.Finding.--TEST>
  rdf:type <http://rdf.cdisc.org/mms#DataElement> ;
  <http://rdf.cdisc.org/mms#context> sdtm-1-3:FindingVariables ;
  <http://rdf.cdisc.org/mms#dataElementDescription> "Long name For --TESTCD. Examples: Platelet, Systolic Blood Pressure, Summary (Min) RR Duration, Eye Examination."^^xsd:string ;
  <http://rdf.cdisc.org/mms#dataElementLabel> "Name of Measurement, Test or Examination"^^xsd:string ;
  <http://rdf.cdisc.org/mms#dataElementName> "--TEST"^^xsd:string ;
  <http://rdf.cdisc.org/mms#dataElementType> "xsd:string"^^xsd:anySimpleType ;
  <http://rdf.cdisc.org/mms#ordinal> "2"^^xsd:positiveInteger ;
  cdiscs:dataElementRole <https://raw.githubusercontent.com/phuse-org/CTDasRDF/master/data/rdf/sdtm-1-3.ttl#Classifier.SynonymQualifier> ;
  cdiscs:dataElementType <https://raw.githubusercontent.com/phuse-org/CTDasRDF/master/data/rdf/ct-schema.rdf#Classifier.Character> ;
  cdiscs:qualifies <https://raw.githubusercontent.com/phuse-org/CTDasRDF/master/data/rdf/sdtm-1-3.ttl#DataElement.Finding.--TESTCD> ;
  cdiscs:supportedBySDTMIG "true"^^xsd:boolean ;
  cdiscs:supportedBySEND "true"^^xsd:boolean ;
.
<https://raw.githubusercontent.com/phuse-org/CTDasRDF/master/data/rdf/sdtm-1-3.ttl#DataElement.Finding.--TESTCD>
  rdf:type <http://rdf.cdisc.org/mms#DataElement> ;
  <http://rdf.cdisc.org/mms#context> sdtm-1-3:FindingVariables ;
  <http://rdf.cdisc.org/mms#dataElementDescription> "Short character value for --TEST used as a column name when converting a dataset from a vertical format to a horizontal format. The short value can be up to 8 characters. Examples: PLAT, SYSBP, RRMIN, EYEEXAM."^^xsd:string ;
  <http://rdf.cdisc.org/mms#dataElementLabel> "Short Name of Measurement, Test or Examination"^^xsd:string ;
  <http://rdf.cdisc.org/mms#dataElementName> "--TESTCD"^^xsd:string ;
  <http://rdf.cdisc.org/mms#dataElementType> "xsd:string"^^xsd:anySimpleType ;
  <http://rdf.cdisc.org/mms#ordinal> "1"^^xsd:positiveInteger ;
  cdiscs:dataElementRole <https://raw.githubusercontent.com/phuse-org/CTDasRDF/master/data/rdf/sdtm-1-3.ttl#Classifier.TopicVariable> ;
  cdiscs:dataElementType <https://raw.githubusercontent.com/phuse-org/CTDasRDF/master/data/rdf/ct-schema.rdf#Classifier.Character> ;
  cdiscs:supportedBySDTMIG "true"^^xsd:boolean ;
  cdiscs:supportedBySEND "true"^^xsd:boolean ;
.
<https://raw.githubusercontent.com/phuse-org/CTDasRDF/master/data/rdf/sdtm-1-3.ttl#DataElement.Finding.--TOX>
  rdf:type <http://rdf.cdisc.org/mms#DataElement> ;
  <http://rdf.cdisc.org/mms#context> sdtm-1-3:FindingVariables ;
  <http://rdf.cdisc.org/mms#dataElementDescription> "Description of toxicity quantified by --TOXGR such as NCI CTCAE Short Name. Examples: HYPERCALCEMIA, HYPOCALCEMIA. Sponsor should specify which scale and version is used in the Sponsor Comments column of the Define.xml document."^^xsd:string ;
  <http://rdf.cdisc.org/mms#dataElementLabel> "Toxicity"^^xsd:string ;
  <http://rdf.cdisc.org/mms#dataElementName> "--TOX"^^xsd:string ;
  <http://rdf.cdisc.org/mms#dataElementType> "xsd:string"^^xsd:anySimpleType ;
  <http://rdf.cdisc.org/mms#ordinal> "42"^^xsd:positiveInteger ;
  cdiscs:dataElementRole <https://raw.githubusercontent.com/phuse-org/CTDasRDF/master/data/rdf/sdtm-1-3.ttl#Classifier.VariableQualifier> ;
  cdiscs:dataElementType <https://raw.githubusercontent.com/phuse-org/CTDasRDF/master/data/rdf/ct-schema.rdf#Classifier.Character> ;
  cdiscs:qualifies <https://raw.githubusercontent.com/phuse-org/CTDasRDF/master/data/rdf/sdtm-1-3.ttl#DataElement.Finding.--TOXGR> ;
  cdiscs:supportedBySDTMIG "true"^^xsd:boolean ;
  cdiscs:supportedBySEND "true"^^xsd:boolean ;
.
<https://raw.githubusercontent.com/phuse-org/CTDasRDF/master/data/rdf/sdtm-1-3.ttl#DataElement.Finding.--TOXGR>
  rdf:type <http://rdf.cdisc.org/mms#DataElement> ;
  <http://rdf.cdisc.org/mms#context> sdtm-1-3:FindingVariables ;
  <http://rdf.cdisc.org/mms#dataElementDescription> "Records toxicity grade using a standard toxicity scale (such as the NCI CTCAE). Sponsor should specify which scale and version is used in the Sponsor Comments column of the Define data definition document. Example: 2."^^xsd:string ;
  <http://rdf.cdisc.org/mms#dataElementLabel> "Toxicity Grade"^^xsd:string ;
  <http://rdf.cdisc.org/mms#dataElementName> "--TOXGR"^^xsd:string ;
  <http://rdf.cdisc.org/mms#dataElementType> "xsd:string"^^xsd:anySimpleType ;
  <http://rdf.cdisc.org/mms#ordinal> "43"^^xsd:positiveInteger ;
  cdiscs:dataElementRole <https://raw.githubusercontent.com/phuse-org/CTDasRDF/master/data/rdf/sdtm-1-3.ttl#Classifier.VariableQualifier> ;
  cdiscs:dataElementType <https://raw.githubusercontent.com/phuse-org/CTDasRDF/master/data/rdf/ct-schema.rdf#Classifier.Character> ;
  cdiscs:qualifies <https://raw.githubusercontent.com/phuse-org/CTDasRDF/master/data/rdf/sdtm-1-3.ttl#DataElement.Finding.--STRESC> ;
  cdiscs:supportedBySDTMIG "true"^^xsd:boolean ;
  cdiscs:supportedBySEND "true"^^xsd:boolean ;
.
<https://raw.githubusercontent.com/phuse-org/CTDasRDF/master/data/rdf/sdtm-1-3.ttl#DataElement.Finding.--XFN>
  rdf:type <http://rdf.cdisc.org/mms#DataElement> ;
  <http://rdf.cdisc.org/mms#context> sdtm-1-3:FindingVariables ;
  <http://rdf.cdisc.org/mms#dataElementDescription> "Filename for an external file, such as one for an ECG waveform or a medical image."^^xsd:string ;
  <http://rdf.cdisc.org/mms#dataElementLabel> "External Filename"^^xsd:string ;
  <http://rdf.cdisc.org/mms#dataElementName> "--XFN"^^xsd:string ;
  <http://rdf.cdisc.org/mms#dataElementType> "xsd:string"^^xsd:anySimpleType ;
  <http://rdf.cdisc.org/mms#ordinal> "22"^^xsd:positiveInteger ;
  cdiscs:dataElementRole <https://raw.githubusercontent.com/phuse-org/CTDasRDF/master/data/rdf/sdtm-1-3.ttl#Classifier.RecordQualifier> ;
  cdiscs:dataElementType <https://raw.githubusercontent.com/phuse-org/CTDasRDF/master/data/rdf/ct-schema.rdf#Classifier.Character> ;
  cdiscs:supportedBySDTMIG "true"^^xsd:boolean ;
  cdiscs:supportedBySEND "true"^^xsd:boolean ;
.
<https://raw.githubusercontent.com/phuse-org/CTDasRDF/master/data/rdf/sdtm-1-3.ttl#DataElement.FindingAbout.--OBJ>
  rdf:type <http://rdf.cdisc.org/mms#DataElement> ;
  <http://rdf.cdisc.org/mms#context> sdtm-1-3:FindingsAboutVariables ;
  <http://rdf.cdisc.org/mms#dataElementDescription> "Used in domains modeled as Findings About Events or Findings About Interventions. Describes the event or intervention whose property is being measured in --TESTCD/--TEST. Example: an event of vomiting which has findings, where --OBJ = \"VOMIT\" and the volume of VOMIT is being measured where --TESTCD = \"VOLUME\"."^^xsd:string ;
  <http://rdf.cdisc.org/mms#dataElementLabel> "Object of the Observation"^^xsd:string ;
  <http://rdf.cdisc.org/mms#dataElementName> "--OBJ"^^xsd:string ;
  <http://rdf.cdisc.org/mms#dataElementType> "xsd:string"^^xsd:anySimpleType ;
  <http://rdf.cdisc.org/mms#ordinal> "1"^^xsd:positiveInteger ;
  cdiscs:dataElementRole <https://raw.githubusercontent.com/phuse-org/CTDasRDF/master/data/rdf/sdtm-1-3.ttl#Classifier.RecordQualifier> ;
  cdiscs:dataElementType <https://raw.githubusercontent.com/phuse-org/CTDasRDF/master/data/rdf/ct-schema.rdf#Classifier.Character> ;
  cdiscs:supportedBySDTMIG "true"^^xsd:boolean ;
  cdiscs:supportedBySEND "false"^^xsd:boolean ;
.
<https://raw.githubusercontent.com/phuse-org/CTDasRDF/master/data/rdf/sdtm-1-3.ttl#DataElement.Identifier.--GRPID>
  rdf:type <http://rdf.cdisc.org/mms#DataElement> ;
  <http://rdf.cdisc.org/mms#context> sdtm-1-3:IdentifierVariables ;
  <http://rdf.cdisc.org/mms#dataElementDescription> "Optional group identifier, used to link together a block of related records within a subject in a domain. Also used to link together a block of related records in the Trial Summary dataset (Section 3.4)."^^xsd:string ;
  <http://rdf.cdisc.org/mms#dataElementLabel> "Group ID"^^xsd:string ;
  <http://rdf.cdisc.org/mms#dataElementName> "--GRPID"^^xsd:string ;
  <http://rdf.cdisc.org/mms#dataElementType> "xsd:string"^^xsd:anySimpleType ;
  <http://rdf.cdisc.org/mms#ordinal> "6"^^xsd:positiveInteger ;
  cdiscs:dataElementRole <https://raw.githubusercontent.com/phuse-org/CTDasRDF/master/data/rdf/sdtm-1-3.ttl#Classifier.IdentifierVariable> ;
  cdiscs:dataElementType <https://raw.githubusercontent.com/phuse-org/CTDasRDF/master/data/rdf/ct-schema.rdf#Classifier.Character> ;
  cdiscs:supportedBySDTMIG "true"^^xsd:boolean ;
  cdiscs:supportedBySEND "true"^^xsd:boolean ;
.
<https://raw.githubusercontent.com/phuse-org/CTDasRDF/master/data/rdf/sdtm-1-3.ttl#DataElement.Identifier.--LNKGRP>
  rdf:type <http://rdf.cdisc.org/mms#DataElement> ;
  <http://rdf.cdisc.org/mms#context> sdtm-1-3:IdentifierVariables ;
  <http://rdf.cdisc.org/mms#dataElementDescription> "A grouping identifier used to identify a group of assessment results in one domain that are evaluated, as a group, and contribute to a (summary) result in another domain. This will usually be a many-to-one relationship. For example: Multiple tumor measurements/assessments will contribute to a single response to therapy determination record."^^xsd:string ;
  <http://rdf.cdisc.org/mms#dataElementLabel> "Link Group ID"^^xsd:string ;
  <http://rdf.cdisc.org/mms#dataElementName> "--LNKGRP"^^xsd:string ;
  <http://rdf.cdisc.org/mms#dataElementType> "xsd:string"^^xsd:anySimpleType ;
  <http://rdf.cdisc.org/mms#ordinal> "10"^^xsd:positiveInteger ;
  cdiscs:dataElementRole <https://raw.githubusercontent.com/phuse-org/CTDasRDF/master/data/rdf/sdtm-1-3.ttl#Classifier.IdentifierVariable> ;
  cdiscs:dataElementType <https://raw.githubusercontent.com/phuse-org/CTDasRDF/master/data/rdf/ct-schema.rdf#Classifier.Character> ;
  cdiscs:supportedBySDTMIG "true"^^xsd:boolean ;
  cdiscs:supportedBySEND "true"^^xsd:boolean ;
.
<https://raw.githubusercontent.com/phuse-org/CTDasRDF/master/data/rdf/sdtm-1-3.ttl#DataElement.Identifier.--LNKID>
  rdf:type <http://rdf.cdisc.org/mms#DataElement> ;
  <http://rdf.cdisc.org/mms#context> sdtm-1-3:IdentifierVariables ;
  <http://rdf.cdisc.org/mms#dataElementDescription> "Identifier used to link a feature (such as a tumor) initially recorded as a result in one findings domain to assessments of that feature in another findings domain. This may be a one-to-one or a one-to-many relationship. For Example: A single tumor may have multiple measurements/assessment performed at each study visit."^^xsd:string ;
  <http://rdf.cdisc.org/mms#dataElementLabel> "Link ID"^^xsd:string ;
  <http://rdf.cdisc.org/mms#dataElementName> "--LNKID"^^xsd:string ;
  <http://rdf.cdisc.org/mms#dataElementType> "xsd:string"^^xsd:anySimpleType ;
  <http://rdf.cdisc.org/mms#ordinal> "9"^^xsd:positiveInteger ;
  cdiscs:dataElementRole <https://raw.githubusercontent.com/phuse-org/CTDasRDF/master/data/rdf/sdtm-1-3.ttl#Classifier.IdentifierVariable> ;
  cdiscs:dataElementType <https://raw.githubusercontent.com/phuse-org/CTDasRDF/master/data/rdf/ct-schema.rdf#Classifier.Character> ;
  cdiscs:supportedBySDTMIG "true"^^xsd:boolean ;
  cdiscs:supportedBySEND "true"^^xsd:boolean ;
.
<https://raw.githubusercontent.com/phuse-org/CTDasRDF/master/data/rdf/sdtm-1-3.ttl#DataElement.Identifier.--REFID>
  rdf:type <http://rdf.cdisc.org/mms#DataElement> ;
  <http://rdf.cdisc.org/mms#context> sdtm-1-3:IdentifierVariables ;
  <http://rdf.cdisc.org/mms#dataElementDescription> "Optional internal or external identifier such as lab specimen ID, or UUID for an ECG waveform or a medical image."^^xsd:string ;
  <http://rdf.cdisc.org/mms#dataElementLabel> "Reference ID"^^xsd:string ;
  <http://rdf.cdisc.org/mms#dataElementName> "--REFID"^^xsd:string ;
  <http://rdf.cdisc.org/mms#dataElementType> "xsd:string"^^xsd:anySimpleType ;
  <http://rdf.cdisc.org/mms#ordinal> "7"^^xsd:positiveInteger ;
  cdiscs:dataElementRole <https://raw.githubusercontent.com/phuse-org/CTDasRDF/master/data/rdf/sdtm-1-3.ttl#Classifier.IdentifierVariable> ;
  cdiscs:dataElementType <https://raw.githubusercontent.com/phuse-org/CTDasRDF/master/data/rdf/ct-schema.rdf#Classifier.Character> ;
  cdiscs:supportedBySDTMIG "true"^^xsd:boolean ;
  cdiscs:supportedBySEND "true"^^xsd:boolean ;
.
<https://raw.githubusercontent.com/phuse-org/CTDasRDF/master/data/rdf/sdtm-1-3.ttl#DataElement.Identifier.--SEQ>
  rdf:type <http://rdf.cdisc.org/mms#DataElement> ;
  <http://rdf.cdisc.org/mms#context> sdtm-1-3:IdentifierVariables ;
  <http://rdf.cdisc.org/mms#dataElementDescription> "Sequence number to ensure uniqueness of records within a dataset for a subject (or within a parameter, in the case of the Trial Summary domain). May be any valid number (including decimals) and does not have to start at 1."^^xsd:string ;
  <http://rdf.cdisc.org/mms#dataElementLabel> "Sequence Number"^^xsd:string ;
  <http://rdf.cdisc.org/mms#dataElementName> "--SEQ"^^xsd:string ;
  <http://rdf.cdisc.org/mms#dataElementType> "xsd:decimal"^^xsd:anySimpleType ;
  <http://rdf.cdisc.org/mms#ordinal> "5"^^xsd:positiveInteger ;
  cdiscs:dataElementRole <https://raw.githubusercontent.com/phuse-org/CTDasRDF/master/data/rdf/sdtm-1-3.ttl#Classifier.IdentifierVariable> ;
  cdiscs:dataElementType <https://raw.githubusercontent.com/phuse-org/CTDasRDF/master/data/rdf/ct-schema.rdf#Classifier.Numeric> ;
  cdiscs:supportedBySDTMIG "true"^^xsd:boolean ;
  cdiscs:supportedBySEND "true"^^xsd:boolean ;
.
<https://raw.githubusercontent.com/phuse-org/CTDasRDF/master/data/rdf/sdtm-1-3.ttl#DataElement.Identifier.--SPID>
  rdf:type <http://rdf.cdisc.org/mms#DataElement> ;
  <http://rdf.cdisc.org/mms#context> sdtm-1-3:IdentifierVariables ;
  <http://rdf.cdisc.org/mms#dataElementDescription> "Sponsor-defined identifier. Example: pre-printed line identifier on a Concomitant Medications page."^^xsd:string ;
  <http://rdf.cdisc.org/mms#dataElementLabel> "Sponsor ID"^^xsd:string ;
  <http://rdf.cdisc.org/mms#dataElementName> "--SPID"^^xsd:string ;
  <http://rdf.cdisc.org/mms#dataElementType> "xsd:string"^^xsd:anySimpleType ;
  <http://rdf.cdisc.org/mms#ordinal> "8"^^xsd:positiveInteger ;
  cdiscs:dataElementRole <https://raw.githubusercontent.com/phuse-org/CTDasRDF/master/data/rdf/sdtm-1-3.ttl#Classifier.IdentifierVariable> ;
  cdiscs:dataElementType <https://raw.githubusercontent.com/phuse-org/CTDasRDF/master/data/rdf/ct-schema.rdf#Classifier.Character> ;
  cdiscs:supportedBySDTMIG "true"^^xsd:boolean ;
  cdiscs:supportedBySEND "true"^^xsd:boolean ;
.
<https://raw.githubusercontent.com/phuse-org/CTDasRDF/master/data/rdf/sdtm-1-3.ttl#DataElement.Identifier.DOMAIN>
  rdf:type <http://rdf.cdisc.org/mms#DataElement> ;
  <http://rdf.cdisc.org/mms#context> sdtm-1-3:IdentifierVariables ;
  <http://rdf.cdisc.org/mms#dataElementDescription> "Two-character abbreviation for the domain most relevant to the observation. The Domain abbreviation is also used as a prefix for variables to ensure uniqueness when datasets are merged."^^xsd:string ;
  <http://rdf.cdisc.org/mms#dataElementLabel> "Domain Abbreviation"^^xsd:string ;
  <http://rdf.cdisc.org/mms#dataElementName> "DOMAIN"^^xsd:string ;
  <http://rdf.cdisc.org/mms#dataElementType> "xsd:string"^^xsd:anySimpleType ;
  <http://rdf.cdisc.org/mms#ordinal> "2"^^xsd:positiveInteger ;
  cdiscs:dataElementRole <https://raw.githubusercontent.com/phuse-org/CTDasRDF/master/data/rdf/sdtm-1-3.ttl#Classifier.IdentifierVariable> ;
  cdiscs:dataElementType <https://raw.githubusercontent.com/phuse-org/CTDasRDF/master/data/rdf/ct-schema.rdf#Classifier.Character> ;
  cdiscs:supportedBySDTMIG "true"^^xsd:boolean ;
  cdiscs:supportedBySEND "true"^^xsd:boolean ;
.
<https://raw.githubusercontent.com/phuse-org/CTDasRDF/master/data/rdf/sdtm-1-3.ttl#DataElement.Identifier.POOLID>
  rdf:type <http://rdf.cdisc.org/mms#DataElement> ;
  <http://rdf.cdisc.org/mms#context> sdtm-1-3:IdentifierVariables ;
  <http://rdf.cdisc.org/mms#dataElementDescription> "An identifier used to identify a result from a group of subjects that is not assignable to a specific subject."^^xsd:string ;
  <http://rdf.cdisc.org/mms#dataElementLabel> "Pool Identifier"^^xsd:string ;
  <http://rdf.cdisc.org/mms#dataElementName> "POOLID"^^xsd:string ;
  <http://rdf.cdisc.org/mms#dataElementType> "xsd:string"^^xsd:anySimpleType ;
  <http://rdf.cdisc.org/mms#ordinal> "4"^^xsd:positiveInteger ;
  cdiscs:dataElementRole <https://raw.githubusercontent.com/phuse-org/CTDasRDF/master/data/rdf/sdtm-1-3.ttl#Classifier.IdentifierVariable> ;
  cdiscs:dataElementType <https://raw.githubusercontent.com/phuse-org/CTDasRDF/master/data/rdf/ct-schema.rdf#Classifier.Character> ;
  cdiscs:supportedBySDTMIG "true"^^xsd:boolean ;
  cdiscs:supportedBySEND "true"^^xsd:boolean ;
.
<https://raw.githubusercontent.com/phuse-org/CTDasRDF/master/data/rdf/sdtm-1-3.ttl#DataElement.Identifier.STUDYID>
  rdf:type <http://rdf.cdisc.org/mms#DataElement> ;
  <http://rdf.cdisc.org/mms#context> sdtm-1-3:IdentifierVariables ;
  <http://rdf.cdisc.org/mms#dataElementDescription> "Unique identifier for a study."^^xsd:string ;
  <http://rdf.cdisc.org/mms#dataElementLabel> "Study Identifier"^^xsd:string ;
  <http://rdf.cdisc.org/mms#dataElementName> "STUDYID"^^xsd:string ;
  <http://rdf.cdisc.org/mms#dataElementType> "xsd:string"^^xsd:anySimpleType ;
  <http://rdf.cdisc.org/mms#ordinal> "1"^^xsd:positiveInteger ;
  cdiscs:dataElementRole <https://raw.githubusercontent.com/phuse-org/CTDasRDF/master/data/rdf/sdtm-1-3.ttl#Classifier.IdentifierVariable> ;
  cdiscs:dataElementType <https://raw.githubusercontent.com/phuse-org/CTDasRDF/master/data/rdf/ct-schema.rdf#Classifier.Character> ;
  cdiscs:supportedBySDTMIG "true"^^xsd:boolean ;
  cdiscs:supportedBySEND "true"^^xsd:boolean ;
.
<https://raw.githubusercontent.com/phuse-org/CTDasRDF/master/data/rdf/sdtm-1-3.ttl#DataElement.Identifier.USUBJID>
  rdf:type <http://rdf.cdisc.org/mms#DataElement> ;
  <http://rdf.cdisc.org/mms#context> sdtm-1-3:IdentifierVariables ;
  <http://rdf.cdisc.org/mms#dataElementDescription> "Identifier used to uniquely identify a subject across all studies for all applications or submissions involving the product."^^xsd:string ;
  <http://rdf.cdisc.org/mms#dataElementLabel> "Unique Subject Identifier"^^xsd:string ;
  <http://rdf.cdisc.org/mms#dataElementName> "USUBJID"^^xsd:string ;
  <http://rdf.cdisc.org/mms#dataElementType> "xsd:string"^^xsd:anySimpleType ;
  <http://rdf.cdisc.org/mms#ordinal> "3"^^xsd:positiveInteger ;
  cdiscs:dataElementRole <https://raw.githubusercontent.com/phuse-org/CTDasRDF/master/data/rdf/sdtm-1-3.ttl#Classifier.IdentifierVariable> ;
  cdiscs:dataElementType <https://raw.githubusercontent.com/phuse-org/CTDasRDF/master/data/rdf/ct-schema.rdf#Classifier.Character> ;
  cdiscs:supportedBySDTMIG "true"^^xsd:boolean ;
  cdiscs:supportedBySEND "true"^^xsd:boolean ;
.
<https://raw.githubusercontent.com/phuse-org/CTDasRDF/master/data/rdf/sdtm-1-3.ttl#DataElement.Intervention.--ADJ>
  rdf:type <http://rdf.cdisc.org/mms#DataElement> ;
  <http://rdf.cdisc.org/mms#context> sdtm-1-3:InterventionVariables ;
  <http://rdf.cdisc.org/mms#dataElementDescription> "Describes reason or explanation of why a dose is adjusted. Examples ADVERSE EVENT, INSUFFICIENT RESPONSE, NON-MEDICAL REASON."^^xsd:string ;
  <http://rdf.cdisc.org/mms#dataElementLabel> "Reason for Dose Adjustment"^^xsd:string ;
  <http://rdf.cdisc.org/mms#dataElementName> "--ADJ"^^xsd:string ;
  <http://rdf.cdisc.org/mms#dataElementType> "xsd:string"^^xsd:anySimpleType ;
  <http://rdf.cdisc.org/mms#ordinal> "26"^^xsd:positiveInteger ;
  cdiscs:dataElementRole <https://raw.githubusercontent.com/phuse-org/CTDasRDF/master/data/rdf/sdtm-1-3.ttl#Classifier.RecordQualifier> ;
  cdiscs:dataElementType <https://raw.githubusercontent.com/phuse-org/CTDasRDF/master/data/rdf/ct-schema.rdf#Classifier.Character> ;
  cdiscs:supportedBySDTMIG "true"^^xsd:boolean ;
  cdiscs:supportedBySEND "true"^^xsd:boolean ;
.
<https://raw.githubusercontent.com/phuse-org/CTDasRDF/master/data/rdf/sdtm-1-3.ttl#DataElement.Intervention.--CAT>
  rdf:type <http://rdf.cdisc.org/mms#DataElement> ;
  <http://rdf.cdisc.org/mms#context> sdtm-1-3:InterventionVariables ;
  <http://rdf.cdisc.org/mms#dataElementDescription> "Used to define a category of topic-variable values."^^xsd:string ;
  <http://rdf.cdisc.org/mms#dataElementLabel> "Category"^^xsd:string ;
  <http://rdf.cdisc.org/mms#dataElementName> "--CAT"^^xsd:string ;
  <http://rdf.cdisc.org/mms#dataElementType> "xsd:string"^^xsd:anySimpleType ;
  <http://rdf.cdisc.org/mms#ordinal> "4"^^xsd:positiveInteger ;
  cdiscs:dataElementRole <https://raw.githubusercontent.com/phuse-org/CTDasRDF/master/data/rdf/sdtm-1-3.ttl#Classifier.GroupingQualifier> ;
  cdiscs:dataElementType <https://raw.githubusercontent.com/phuse-org/CTDasRDF/master/data/rdf/ct-schema.rdf#Classifier.Character> ;
  cdiscs:supportedBySDTMIG "true"^^xsd:boolean ;
  cdiscs:supportedBySEND "true"^^xsd:boolean ;
.
<https://raw.githubusercontent.com/phuse-org/CTDasRDF/master/data/rdf/sdtm-1-3.ttl#DataElement.Intervention.--CLAS>
  rdf:type <http://rdf.cdisc.org/mms#DataElement> ;
  <http://rdf.cdisc.org/mms#context> sdtm-1-3:InterventionVariables ;
  <http://rdf.cdisc.org/mms#dataElementDescription> "Class for a medication or treatment, often obtained from a coding dictionary."^^xsd:string ;
  <http://rdf.cdisc.org/mms#dataElementLabel> "Class"^^xsd:string ;
  <http://rdf.cdisc.org/mms#dataElementName> "--CLAS"^^xsd:string ;
  <http://rdf.cdisc.org/mms#dataElementType> "xsd:string"^^xsd:anySimpleType ;
  <http://rdf.cdisc.org/mms#ordinal> "11"^^xsd:positiveInteger ;
  cdiscs:dataElementRole <https://raw.githubusercontent.com/phuse-org/CTDasRDF/master/data/rdf/sdtm-1-3.ttl#Classifier.VariableQualifier> ;
  cdiscs:dataElementType <https://raw.githubusercontent.com/phuse-org/CTDasRDF/master/data/rdf/ct-schema.rdf#Classifier.Character> ;
  cdiscs:qualifies <https://raw.githubusercontent.com/phuse-org/CTDasRDF/master/data/rdf/sdtm-1-3.ttl#DataElement.Intervention.--TRT> ;
  cdiscs:supportedBySDTMIG "true"^^xsd:boolean ;
  cdiscs:supportedBySEND "true"^^xsd:boolean ;
.
<https://raw.githubusercontent.com/phuse-org/CTDasRDF/master/data/rdf/sdtm-1-3.ttl#DataElement.Intervention.--CLASCD>
  rdf:type <http://rdf.cdisc.org/mms#DataElement> ;
  <http://rdf.cdisc.org/mms#context> sdtm-1-3:InterventionVariables ;
  <http://rdf.cdisc.org/mms#dataElementDescription> "Used to represent code for --CLAS."^^xsd:string ;
  <http://rdf.cdisc.org/mms#dataElementLabel> "Class Code"^^xsd:string ;
  <http://rdf.cdisc.org/mms#dataElementName> "--CLASCD"^^xsd:string ;
  <http://rdf.cdisc.org/mms#dataElementType> "xsd:string"^^xsd:anySimpleType ;
  <http://rdf.cdisc.org/mms#ordinal> "12"^^xsd:positiveInteger ;
  cdiscs:dataElementRole <https://raw.githubusercontent.com/phuse-org/CTDasRDF/master/data/rdf/sdtm-1-3.ttl#Classifier.VariableQualifier> ;
  cdiscs:dataElementType <https://raw.githubusercontent.com/phuse-org/CTDasRDF/master/data/rdf/ct-schema.rdf#Classifier.Character> ;
  cdiscs:qualifies <https://raw.githubusercontent.com/phuse-org/CTDasRDF/master/data/rdf/sdtm-1-3.ttl#DataElement.Intervention.--TRT> ;
  cdiscs:supportedBySDTMIG "true"^^xsd:boolean ;
  cdiscs:supportedBySEND "true"^^xsd:boolean ;
.
<https://raw.githubusercontent.com/phuse-org/CTDasRDF/master/data/rdf/sdtm-1-3.ttl#DataElement.Intervention.--DECOD>
  rdf:type <http://rdf.cdisc.org/mms#DataElement> ;
  <http://rdf.cdisc.org/mms#context> sdtm-1-3:InterventionVariables ;
  <http://rdf.cdisc.org/mms#dataElementDescription> "Standardized or dictionary-derived name of the topic variable, --TRT, or the modified topic variable (--MODIFY), if applicable. Equivalent to the generic drug name in WHO Drug, or a term in SNOMED, ICD9, or other published or sponsor-defined dictionaries."^^xsd:string ;
  <http://rdf.cdisc.org/mms#dataElementLabel> "Standardized Treatment Name"^^xsd:string ;
  <http://rdf.cdisc.org/mms#dataElementName> "--DECOD"^^xsd:string ;
  <http://rdf.cdisc.org/mms#dataElementType> "xsd:string"^^xsd:anySimpleType ;
  <http://rdf.cdisc.org/mms#ordinal> "3"^^xsd:positiveInteger ;
  cdiscs:dataElementRole <https://raw.githubusercontent.com/phuse-org/CTDasRDF/master/data/rdf/sdtm-1-3.ttl#Classifier.SynonymQualifier> ;
  cdiscs:dataElementType <https://raw.githubusercontent.com/phuse-org/CTDasRDF/master/data/rdf/ct-schema.rdf#Classifier.Character> ;
  cdiscs:qualifies <https://raw.githubusercontent.com/phuse-org/CTDasRDF/master/data/rdf/sdtm-1-3.ttl#DataElement.Intervention.--TRT> ;
  cdiscs:supportedBySDTMIG "true"^^xsd:boolean ;
  cdiscs:supportedBySEND "true"^^xsd:boolean ;
.
<https://raw.githubusercontent.com/phuse-org/CTDasRDF/master/data/rdf/sdtm-1-3.ttl#DataElement.Intervention.--DOSE>
  rdf:type <http://rdf.cdisc.org/mms#DataElement> ;
  <http://rdf.cdisc.org/mms#context> sdtm-1-3:InterventionVariables ;
  <http://rdf.cdisc.org/mms#dataElementDescription> "Amount of --TRT given. Not populated when --DOSTXT is populated."^^xsd:string ;
  <http://rdf.cdisc.org/mms#dataElementLabel> "Dose"^^xsd:string ;
  <http://rdf.cdisc.org/mms#dataElementName> "--DOSE"^^xsd:string ;
  <http://rdf.cdisc.org/mms#dataElementType> "xsd:decimal"^^xsd:anySimpleType ;
  <http://rdf.cdisc.org/mms#ordinal> "13"^^xsd:positiveInteger ;
  cdiscs:dataElementRole <https://raw.githubusercontent.com/phuse-org/CTDasRDF/master/data/rdf/sdtm-1-3.ttl#Classifier.RecordQualifier> ;
  cdiscs:dataElementType <https://raw.githubusercontent.com/phuse-org/CTDasRDF/master/data/rdf/ct-schema.rdf#Classifier.Numeric> ;
  cdiscs:supportedBySDTMIG "true"^^xsd:boolean ;
  cdiscs:supportedBySEND "true"^^xsd:boolean ;
.
<https://raw.githubusercontent.com/phuse-org/CTDasRDF/master/data/rdf/sdtm-1-3.ttl#DataElement.Intervention.--DOSFRM>
  rdf:type <http://rdf.cdisc.org/mms#DataElement> ;
  <http://rdf.cdisc.org/mms#context> sdtm-1-3:InterventionVariables ;
  <http://rdf.cdisc.org/mms#dataElementDescription> "Dose form for the treatment. Examples: TABLET, CAPSULE."^^xsd:string ;
  <http://rdf.cdisc.org/mms#dataElementLabel> "Dose Form"^^xsd:string ;
  <http://rdf.cdisc.org/mms#dataElementName> "--DOSFRM"^^xsd:string ;
  <http://rdf.cdisc.org/mms#dataElementType> "xsd:string"^^xsd:anySimpleType ;
  <http://rdf.cdisc.org/mms#ordinal> "16"^^xsd:positiveInteger ;
  cdiscs:dataElementRole <https://raw.githubusercontent.com/phuse-org/CTDasRDF/master/data/rdf/sdtm-1-3.ttl#Classifier.VariableQualifier> ;
  cdiscs:dataElementType <https://raw.githubusercontent.com/phuse-org/CTDasRDF/master/data/rdf/ct-schema.rdf#Classifier.Character> ;
  cdiscs:qualifies <https://raw.githubusercontent.com/phuse-org/CTDasRDF/master/data/rdf/sdtm-1-3.ttl#DataElement.Intervention.--DOSE> ;
  cdiscs:qualifies <https://raw.githubusercontent.com/phuse-org/CTDasRDF/master/data/rdf/sdtm-1-3.ttl#DataElement.Intervention.--DOSTOT> ;
  cdiscs:qualifies <https://raw.githubusercontent.com/phuse-org/CTDasRDF/master/data/rdf/sdtm-1-3.ttl#DataElement.Intervention.--DOSTXT> ;
  cdiscs:supportedBySDTMIG "true"^^xsd:boolean ;
  cdiscs:supportedBySEND "true"^^xsd:boolean ;
.
<https://raw.githubusercontent.com/phuse-org/CTDasRDF/master/data/rdf/sdtm-1-3.ttl#DataElement.Intervention.--DOSFRQ>
  rdf:type <http://rdf.cdisc.org/mms#DataElement> ;
  <http://rdf.cdisc.org/mms#context> sdtm-1-3:InterventionVariables ;
  <http://rdf.cdisc.org/mms#dataElementDescription> "Usually expressed as the number of doses given per a specific interval. Examples: QD, BID, TID, QID."^^xsd:string ;
  <http://rdf.cdisc.org/mms#dataElementLabel> "Dosing Frequency per Interval"^^xsd:string ;
  <http://rdf.cdisc.org/mms#dataElementName> "--DOSFRQ"^^xsd:string ;
  <http://rdf.cdisc.org/mms#dataElementType> "xsd:string"^^xsd:anySimpleType ;
  <http://rdf.cdisc.org/mms#ordinal> "17"^^xsd:positiveInteger ;
  cdiscs:dataElementRole <https://raw.githubusercontent.com/phuse-org/CTDasRDF/master/data/rdf/sdtm-1-3.ttl#Classifier.VariableQualifier> ;
  cdiscs:dataElementType <https://raw.githubusercontent.com/phuse-org/CTDasRDF/master/data/rdf/ct-schema.rdf#Classifier.Character> ;
  cdiscs:qualifies <https://raw.githubusercontent.com/phuse-org/CTDasRDF/master/data/rdf/sdtm-1-3.ttl#DataElement.Intervention.--DOSE> ;
  cdiscs:qualifies <https://raw.githubusercontent.com/phuse-org/CTDasRDF/master/data/rdf/sdtm-1-3.ttl#DataElement.Intervention.--DOSTOT> ;
  cdiscs:qualifies <https://raw.githubusercontent.com/phuse-org/CTDasRDF/master/data/rdf/sdtm-1-3.ttl#DataElement.Intervention.--DOSTXT> ;
  cdiscs:supportedBySDTMIG "true"^^xsd:boolean ;
  cdiscs:supportedBySEND "true"^^xsd:boolean ;
.
<https://raw.githubusercontent.com/phuse-org/CTDasRDF/master/data/rdf/sdtm-1-3.ttl#DataElement.Intervention.--DOSRGM>
  rdf:type <http://rdf.cdisc.org/mms#DataElement> ;
  <http://rdf.cdisc.org/mms#context> sdtm-1-3:InterventionVariables ;
  <http://rdf.cdisc.org/mms#dataElementDescription> "Text description of the (intended) schedule or regimen for the Intervention. Examples: TWO WEEKS ON, TWO WEEKS OFF."^^xsd:string ;
  <http://rdf.cdisc.org/mms#dataElementLabel> "Intended Dose Regimen"^^xsd:string ;
  <http://rdf.cdisc.org/mms#dataElementName> "--DOSRGM"^^xsd:string ;
  <http://rdf.cdisc.org/mms#dataElementType> "xsd:string"^^xsd:anySimpleType ;
  <http://rdf.cdisc.org/mms#ordinal> "19"^^xsd:positiveInteger ;
  cdiscs:dataElementRole <https://raw.githubusercontent.com/phuse-org/CTDasRDF/master/data/rdf/sdtm-1-3.ttl#Classifier.VariableQualifier> ;
  cdiscs:dataElementType <https://raw.githubusercontent.com/phuse-org/CTDasRDF/master/data/rdf/ct-schema.rdf#Classifier.Character> ;
  cdiscs:qualifies <https://raw.githubusercontent.com/phuse-org/CTDasRDF/master/data/rdf/sdtm-1-3.ttl#DataElement.Intervention.--DOSE> ;
  cdiscs:qualifies <https://raw.githubusercontent.com/phuse-org/CTDasRDF/master/data/rdf/sdtm-1-3.ttl#DataElement.Intervention.--DOSTOT> ;
  cdiscs:qualifies <https://raw.githubusercontent.com/phuse-org/CTDasRDF/master/data/rdf/sdtm-1-3.ttl#DataElement.Intervention.--DOSTXT> ;
  cdiscs:supportedBySDTMIG "true"^^xsd:boolean ;
  cdiscs:supportedBySEND "true"^^xsd:boolean ;
.
<https://raw.githubusercontent.com/phuse-org/CTDasRDF/master/data/rdf/sdtm-1-3.ttl#DataElement.Intervention.--DOSTOT>
  rdf:type <http://rdf.cdisc.org/mms#DataElement> ;
  <http://rdf.cdisc.org/mms#context> sdtm-1-3:InterventionVariables ;
  <http://rdf.cdisc.org/mms#dataElementDescription> "Total daily dose of --TRT using the units in --DOSU. Used when dosing is collected as Total Daily Dose."^^xsd:string ;
  <http://rdf.cdisc.org/mms#dataElementLabel> "Total Daily Dose"^^xsd:string ;
  <http://rdf.cdisc.org/mms#dataElementName> "--DOSTOT"^^xsd:string ;
  <http://rdf.cdisc.org/mms#dataElementType> "xsd:decimal"^^xsd:anySimpleType ;
  <http://rdf.cdisc.org/mms#ordinal> "18"^^xsd:positiveInteger ;
  cdiscs:dataElementRole <https://raw.githubusercontent.com/phuse-org/CTDasRDF/master/data/rdf/sdtm-1-3.ttl#Classifier.RecordQualifier> ;
  cdiscs:dataElementType <https://raw.githubusercontent.com/phuse-org/CTDasRDF/master/data/rdf/ct-schema.rdf#Classifier.Numeric> ;
  cdiscs:supportedBySDTMIG "true"^^xsd:boolean ;
  cdiscs:supportedBySEND "true"^^xsd:boolean ;
.
<https://raw.githubusercontent.com/phuse-org/CTDasRDF/master/data/rdf/sdtm-1-3.ttl#DataElement.Intervention.--DOSTXT>
  rdf:type <http://rdf.cdisc.org/mms#DataElement> ;
  <http://rdf.cdisc.org/mms#context> sdtm-1-3:InterventionVariables ;
  <http://rdf.cdisc.org/mms#dataElementDescription> "Dosing information collected in text form. Examples: <1 per day, 200-400. Not populated when --DOSE is populated."^^xsd:string ;
  <http://rdf.cdisc.org/mms#dataElementLabel> "Dose Description"^^xsd:string ;
  <http://rdf.cdisc.org/mms#dataElementName> "--DOSTXT"^^xsd:string ;
  <http://rdf.cdisc.org/mms#dataElementType> "xsd:string"^^xsd:anySimpleType ;
  <http://rdf.cdisc.org/mms#ordinal> "14"^^xsd:positiveInteger ;
  cdiscs:dataElementRole <https://raw.githubusercontent.com/phuse-org/CTDasRDF/master/data/rdf/sdtm-1-3.ttl#Classifier.RecordQualifier> ;
  cdiscs:dataElementType <https://raw.githubusercontent.com/phuse-org/CTDasRDF/master/data/rdf/ct-schema.rdf#Classifier.Character> ;
  cdiscs:supportedBySDTMIG "true"^^xsd:boolean ;
  cdiscs:supportedBySEND "true"^^xsd:boolean ;
.
<https://raw.githubusercontent.com/phuse-org/CTDasRDF/master/data/rdf/sdtm-1-3.ttl#DataElement.Intervention.--DOSU>
  rdf:type <http://rdf.cdisc.org/mms#DataElement> ;
  <http://rdf.cdisc.org/mms#context> sdtm-1-3:InterventionVariables ;
  <http://rdf.cdisc.org/mms#dataElementDescription> "Units for --DOSE, --DOSTOT, or --DOSTXT (Examples: ng, mg, mg/kg)."^^xsd:string ;
  <http://rdf.cdisc.org/mms#dataElementLabel> "Dose Units"^^xsd:string ;
  <http://rdf.cdisc.org/mms#dataElementName> "--DOSU"^^xsd:string ;
  <http://rdf.cdisc.org/mms#dataElementType> "xsd:string"^^xsd:anySimpleType ;
  <http://rdf.cdisc.org/mms#ordinal> "15"^^xsd:positiveInteger ;
  cdiscs:dataElementRole <https://raw.githubusercontent.com/phuse-org/CTDasRDF/master/data/rdf/sdtm-1-3.ttl#Classifier.VariableQualifier> ;
  cdiscs:dataElementType <https://raw.githubusercontent.com/phuse-org/CTDasRDF/master/data/rdf/ct-schema.rdf#Classifier.Character> ;
  cdiscs:qualifies <https://raw.githubusercontent.com/phuse-org/CTDasRDF/master/data/rdf/sdtm-1-3.ttl#DataElement.Intervention.--DOSE> ;
  cdiscs:qualifies <https://raw.githubusercontent.com/phuse-org/CTDasRDF/master/data/rdf/sdtm-1-3.ttl#DataElement.Intervention.--DOSTOT> ;
  cdiscs:qualifies <https://raw.githubusercontent.com/phuse-org/CTDasRDF/master/data/rdf/sdtm-1-3.ttl#DataElement.Intervention.--DOSTXT> ;
  cdiscs:supportedBySDTMIG "true"^^xsd:boolean ;
  cdiscs:supportedBySEND "true"^^xsd:boolean ;
.
<https://raw.githubusercontent.com/phuse-org/CTDasRDF/master/data/rdf/sdtm-1-3.ttl#DataElement.Intervention.--INDC>
  rdf:type <http://rdf.cdisc.org/mms#DataElement> ;
  <http://rdf.cdisc.org/mms#context> sdtm-1-3:InterventionVariables ;
  <http://rdf.cdisc.org/mms#dataElementDescription> "Denotes the indication for the intervention (e.g., why the therapy was taken or administered)."^^xsd:string ;
  <http://rdf.cdisc.org/mms#dataElementLabel> "Indication"^^xsd:string ;
  <http://rdf.cdisc.org/mms#dataElementName> "--INDC"^^xsd:string ;
  <http://rdf.cdisc.org/mms#dataElementType> "xsd:string"^^xsd:anySimpleType ;
  <http://rdf.cdisc.org/mms#ordinal> "10"^^xsd:positiveInteger ;
  cdiscs:dataElementRole <https://raw.githubusercontent.com/phuse-org/CTDasRDF/master/data/rdf/sdtm-1-3.ttl#Classifier.RecordQualifier> ;
  cdiscs:dataElementType <https://raw.githubusercontent.com/phuse-org/CTDasRDF/master/data/rdf/ct-schema.rdf#Classifier.Character> ;
  cdiscs:supportedBySDTMIG "true"^^xsd:boolean ;
  cdiscs:supportedBySEND "true"^^xsd:boolean ;
.
<https://raw.githubusercontent.com/phuse-org/CTDasRDF/master/data/rdf/sdtm-1-3.ttl#DataElement.Intervention.--LOC>
  rdf:type <http://rdf.cdisc.org/mms#DataElement> ;
  <http://rdf.cdisc.org/mms#context> sdtm-1-3:InterventionVariables ;
  <http://rdf.cdisc.org/mms#dataElementDescription> "Anatomical location of an intervention, such as an injection site. Example: RIGHT ARM for an injection."^^xsd:string ;
  <http://rdf.cdisc.org/mms#dataElementLabel> "Location of Dose Administration"^^xsd:string ;
  <http://rdf.cdisc.org/mms#dataElementName> "--LOC"^^xsd:string ;
  <http://rdf.cdisc.org/mms#dataElementType> "xsd:string"^^xsd:anySimpleType ;
  <http://rdf.cdisc.org/mms#ordinal> "22"^^xsd:positiveInteger ;
  cdiscs:dataElementRole <https://raw.githubusercontent.com/phuse-org/CTDasRDF/master/data/rdf/sdtm-1-3.ttl#Classifier.RecordQualifier> ;
  cdiscs:dataElementType <https://raw.githubusercontent.com/phuse-org/CTDasRDF/master/data/rdf/ct-schema.rdf#Classifier.Character> ;
  cdiscs:supportedBySDTMIG "true"^^xsd:boolean ;
  cdiscs:supportedBySEND "true"^^xsd:boolean ;
.
<https://raw.githubusercontent.com/phuse-org/CTDasRDF/master/data/rdf/sdtm-1-3.ttl#DataElement.Intervention.--LOT>
  rdf:type <http://rdf.cdisc.org/mms#DataElement> ;
  <http://rdf.cdisc.org/mms#context> sdtm-1-3:InterventionVariables ;
  <http://rdf.cdisc.org/mms#dataElementDescription> "Lot number for the intervention described in --TRT."^^xsd:string ;
  <http://rdf.cdisc.org/mms#dataElementLabel> "Lot Number"^^xsd:string ;
  <http://rdf.cdisc.org/mms#dataElementName> "--LOT"^^xsd:string ;
  <http://rdf.cdisc.org/mms#dataElementType> "xsd:string"^^xsd:anySimpleType ;
  <http://rdf.cdisc.org/mms#ordinal> "21"^^xsd:positiveInteger ;
  cdiscs:dataElementRole <https://raw.githubusercontent.com/phuse-org/CTDasRDF/master/data/rdf/sdtm-1-3.ttl#Classifier.RecordQualifier> ;
  cdiscs:dataElementType <https://raw.githubusercontent.com/phuse-org/CTDasRDF/master/data/rdf/ct-schema.rdf#Classifier.Character> ;
  cdiscs:supportedBySDTMIG "true"^^xsd:boolean ;
  cdiscs:supportedBySEND "true"^^xsd:boolean ;
.
<https://raw.githubusercontent.com/phuse-org/CTDasRDF/master/data/rdf/sdtm-1-3.ttl#DataElement.Intervention.--MODIFY>
  rdf:type <http://rdf.cdisc.org/mms#DataElement> ;
  <http://rdf.cdisc.org/mms#context> sdtm-1-3:InterventionVariables ;
  <http://rdf.cdisc.org/mms#dataElementDescription> "If the value for --TRT is modified for coding purposes, then the modified text is placed here."^^xsd:string ;
  <http://rdf.cdisc.org/mms#dataElementLabel> "Modified Treatment Name"^^xsd:string ;
  <http://rdf.cdisc.org/mms#dataElementName> "--MODIFY"^^xsd:string ;
  <http://rdf.cdisc.org/mms#dataElementType> "xsd:string"^^xsd:anySimpleType ;
  <http://rdf.cdisc.org/mms#ordinal> "2"^^xsd:positiveInteger ;
  cdiscs:dataElementRole <https://raw.githubusercontent.com/phuse-org/CTDasRDF/master/data/rdf/sdtm-1-3.ttl#Classifier.SynonymQualifier> ;
  cdiscs:dataElementType <https://raw.githubusercontent.com/phuse-org/CTDasRDF/master/data/rdf/ct-schema.rdf#Classifier.Character> ;
  cdiscs:qualifies <https://raw.githubusercontent.com/phuse-org/CTDasRDF/master/data/rdf/sdtm-1-3.ttl#DataElement.Intervention.--TRT> ;
  cdiscs:supportedBySDTMIG "true"^^xsd:boolean ;
  cdiscs:supportedBySEND "true"^^xsd:boolean ;
.
<https://raw.githubusercontent.com/phuse-org/CTDasRDF/master/data/rdf/sdtm-1-3.ttl#DataElement.Intervention.--OCCUR>
  rdf:type <http://rdf.cdisc.org/mms#DataElement> ;
  <http://rdf.cdisc.org/mms#context> sdtm-1-3:InterventionVariables ;
  <http://rdf.cdisc.org/mms#dataElementDescription> "Used to record whether a pre-specified intervention occurred when information about the occurrence of a specific intervention is solicited."^^xsd:string ;
  <http://rdf.cdisc.org/mms#dataElementLabel> "Occurrence"^^xsd:string ;
  <http://rdf.cdisc.org/mms#dataElementName> "--OCCUR"^^xsd:string ;
  <http://rdf.cdisc.org/mms#dataElementType> "xsd:string"^^xsd:anySimpleType ;
  <http://rdf.cdisc.org/mms#ordinal> "7"^^xsd:positiveInteger ;
  cdiscs:dataElementRole <https://raw.githubusercontent.com/phuse-org/CTDasRDF/master/data/rdf/sdtm-1-3.ttl#Classifier.RecordQualifier> ;
  cdiscs:dataElementType <https://raw.githubusercontent.com/phuse-org/CTDasRDF/master/data/rdf/ct-schema.rdf#Classifier.Character> ;
  cdiscs:supportedBySDTMIG "true"^^xsd:boolean ;
  cdiscs:supportedBySEND "true"^^xsd:boolean ;
.
<https://raw.githubusercontent.com/phuse-org/CTDasRDF/master/data/rdf/sdtm-1-3.ttl#DataElement.Intervention.--PRESP>
  rdf:type <http://rdf.cdisc.org/mms#DataElement> ;
  <http://rdf.cdisc.org/mms#context> sdtm-1-3:InterventionVariables ;
  <http://rdf.cdisc.org/mms#dataElementDescription> "Used when a specific intervention is pre-specified on a CRF. Values should be \"Y\" or null."^^xsd:string ;
  <http://rdf.cdisc.org/mms#dataElementLabel> "Pre-specified"^^xsd:string ;
  <http://rdf.cdisc.org/mms#dataElementName> "--PRESP"^^xsd:string ;
  <http://rdf.cdisc.org/mms#dataElementType> "xsd:string"^^xsd:anySimpleType ;
  <http://rdf.cdisc.org/mms#ordinal> "6"^^xsd:positiveInteger ;
  cdiscs:dataElementRole <https://raw.githubusercontent.com/phuse-org/CTDasRDF/master/data/rdf/sdtm-1-3.ttl#Classifier.VariableQualifier> ;
  cdiscs:dataElementType <https://raw.githubusercontent.com/phuse-org/CTDasRDF/master/data/rdf/ct-schema.rdf#Classifier.Character> ;
  cdiscs:qualifies <https://raw.githubusercontent.com/phuse-org/CTDasRDF/master/data/rdf/sdtm-1-3.ttl#DataElement.Intervention.--TRT> ;
  cdiscs:supportedBySDTMIG "true"^^xsd:boolean ;
  cdiscs:supportedBySEND "true"^^xsd:boolean ;
.
<https://raw.githubusercontent.com/phuse-org/CTDasRDF/master/data/rdf/sdtm-1-3.ttl#DataElement.Intervention.--REASND>
  rdf:type <http://rdf.cdisc.org/mms#DataElement> ;
  <http://rdf.cdisc.org/mms#context> sdtm-1-3:InterventionVariables ;
  <http://rdf.cdisc.org/mms#dataElementDescription> "Reason not done. Used in conjunction with --STAT when value is NOT DONE."^^xsd:string ;
  <http://rdf.cdisc.org/mms#dataElementLabel> "Reason Not Done"^^xsd:string ;
  <http://rdf.cdisc.org/mms#dataElementName> "--REASND"^^xsd:string ;
  <http://rdf.cdisc.org/mms#dataElementType> "xsd:string"^^xsd:anySimpleType ;
  <http://rdf.cdisc.org/mms#ordinal> "9"^^xsd:positiveInteger ;
  cdiscs:dataElementRole <https://raw.githubusercontent.com/phuse-org/CTDasRDF/master/data/rdf/sdtm-1-3.ttl#Classifier.RecordQualifier> ;
  cdiscs:dataElementType <https://raw.githubusercontent.com/phuse-org/CTDasRDF/master/data/rdf/ct-schema.rdf#Classifier.Character> ;
  cdiscs:supportedBySDTMIG "true"^^xsd:boolean ;
  cdiscs:supportedBySEND "true"^^xsd:boolean ;
.
<https://raw.githubusercontent.com/phuse-org/CTDasRDF/master/data/rdf/sdtm-1-3.ttl#DataElement.Intervention.--ROUTE>
  rdf:type <http://rdf.cdisc.org/mms#DataElement> ;
  <http://rdf.cdisc.org/mms#context> sdtm-1-3:InterventionVariables ;
  <http://rdf.cdisc.org/mms#dataElementDescription> "Route of administration for the intervention. Examples: ORAL, INTRAVENOUS."^^xsd:string ;
  <http://rdf.cdisc.org/mms#dataElementLabel> "Route of Administration"^^xsd:string ;
  <http://rdf.cdisc.org/mms#dataElementName> "--ROUTE"^^xsd:string ;
  <http://rdf.cdisc.org/mms#dataElementType> "xsd:string"^^xsd:anySimpleType ;
  <http://rdf.cdisc.org/mms#ordinal> "20"^^xsd:positiveInteger ;
  cdiscs:dataElementRole <https://raw.githubusercontent.com/phuse-org/CTDasRDF/master/data/rdf/sdtm-1-3.ttl#Classifier.VariableQualifier> ;
  cdiscs:dataElementType <https://raw.githubusercontent.com/phuse-org/CTDasRDF/master/data/rdf/ct-schema.rdf#Classifier.Character> ;
  cdiscs:qualifies <https://raw.githubusercontent.com/phuse-org/CTDasRDF/master/data/rdf/sdtm-1-3.ttl#DataElement.Intervention.--TRT> ;
  cdiscs:supportedBySDTMIG "true"^^xsd:boolean ;
  cdiscs:supportedBySEND "true"^^xsd:boolean ;
.
<https://raw.githubusercontent.com/phuse-org/CTDasRDF/master/data/rdf/sdtm-1-3.ttl#DataElement.Intervention.--SCAT>
  rdf:type <http://rdf.cdisc.org/mms#DataElement> ;
  <http://rdf.cdisc.org/mms#context> sdtm-1-3:InterventionVariables ;
  <http://rdf.cdisc.org/mms#dataElementDescription> "Used to define a further categorization of --CAT values."^^xsd:string ;
  <http://rdf.cdisc.org/mms#dataElementLabel> "Subcategory"^^xsd:string ;
  <http://rdf.cdisc.org/mms#dataElementName> "--SCAT"^^xsd:string ;
  <http://rdf.cdisc.org/mms#dataElementType> "xsd:string"^^xsd:anySimpleType ;
  <http://rdf.cdisc.org/mms#ordinal> "5"^^xsd:positiveInteger ;
  cdiscs:dataElementRole <https://raw.githubusercontent.com/phuse-org/CTDasRDF/master/data/rdf/sdtm-1-3.ttl#Classifier.GroupingQualifier> ;
  cdiscs:dataElementType <https://raw.githubusercontent.com/phuse-org/CTDasRDF/master/data/rdf/ct-schema.rdf#Classifier.Character> ;
  cdiscs:supportedBySDTMIG "true"^^xsd:boolean ;
  cdiscs:supportedBySEND "true"^^xsd:boolean ;
.
<https://raw.githubusercontent.com/phuse-org/CTDasRDF/master/data/rdf/sdtm-1-3.ttl#DataElement.Intervention.--STAT>
  rdf:type <http://rdf.cdisc.org/mms#DataElement> ;
  <http://rdf.cdisc.org/mms#context> sdtm-1-3:InterventionVariables ;
  <http://rdf.cdisc.org/mms#dataElementDescription> "Used to indicate when a question about the occurrence of a pre-specified intervention was not answered. Should be null or have a value of NOT DONE."^^xsd:string ;
  <http://rdf.cdisc.org/mms#dataElementLabel> "Completion Status"^^xsd:string ;
  <http://rdf.cdisc.org/mms#dataElementName> "--STAT"^^xsd:string ;
  <http://rdf.cdisc.org/mms#dataElementType> "xsd:string"^^xsd:anySimpleType ;
  <http://rdf.cdisc.org/mms#ordinal> "8"^^xsd:positiveInteger ;
  cdiscs:dataElementRole <https://raw.githubusercontent.com/phuse-org/CTDasRDF/master/data/rdf/sdtm-1-3.ttl#Classifier.RecordQualifier> ;
  cdiscs:dataElementType <https://raw.githubusercontent.com/phuse-org/CTDasRDF/master/data/rdf/ct-schema.rdf#Classifier.Character> ;
  cdiscs:supportedBySDTMIG "true"^^xsd:boolean ;
  cdiscs:supportedBySEND "true"^^xsd:boolean ;
.
<https://raw.githubusercontent.com/phuse-org/CTDasRDF/master/data/rdf/sdtm-1-3.ttl#DataElement.Intervention.--TRT>
  rdf:type <http://rdf.cdisc.org/mms#DataElement> ;
  <http://rdf.cdisc.org/mms#context> sdtm-1-3:InterventionVariables ;
  <http://rdf.cdisc.org/mms#dataElementDescription> "The topic for the intervention observation, usually the verbatim name of the treatment, drug, medicine, or therapy given during the dosing interval for the observation."^^xsd:string ;
  <http://rdf.cdisc.org/mms#dataElementLabel> "Name of Treatment"^^xsd:string ;
  <http://rdf.cdisc.org/mms#dataElementName> "--TRT"^^xsd:string ;
  <http://rdf.cdisc.org/mms#dataElementType> "xsd:string"^^xsd:anySimpleType ;
  <http://rdf.cdisc.org/mms#ordinal> "1"^^xsd:positiveInteger ;
  cdiscs:dataElementRole <https://raw.githubusercontent.com/phuse-org/CTDasRDF/master/data/rdf/sdtm-1-3.ttl#Classifier.TopicVariable> ;
  cdiscs:dataElementType <https://raw.githubusercontent.com/phuse-org/CTDasRDF/master/data/rdf/ct-schema.rdf#Classifier.Character> ;
  cdiscs:supportedBySDTMIG "true"^^xsd:boolean ;
  cdiscs:supportedBySEND "true"^^xsd:boolean ;
.
<https://raw.githubusercontent.com/phuse-org/CTDasRDF/master/data/rdf/sdtm-1-3.ttl#DataElement.Intervention.--TRTV>
  rdf:type <http://rdf.cdisc.org/mms#DataElement> ;
  <http://rdf.cdisc.org/mms#context> sdtm-1-3:InterventionVariables ;
  <http://rdf.cdisc.org/mms#dataElementDescription> "Vehicle for administration of treatment, such as a liquid in which the treatment drug is dissolved. Example: SALINE."^^xsd:string ;
  <http://rdf.cdisc.org/mms#dataElementLabel> "Treatment Vehicle"^^xsd:string ;
  <http://rdf.cdisc.org/mms#dataElementName> "--TRTV"^^xsd:string ;
  <http://rdf.cdisc.org/mms#dataElementType> "xsd:string"^^xsd:anySimpleType ;
  <http://rdf.cdisc.org/mms#ordinal> "23"^^xsd:positiveInteger ;
  cdiscs:dataElementRole <https://raw.githubusercontent.com/phuse-org/CTDasRDF/master/data/rdf/sdtm-1-3.ttl#Classifier.RecordQualifier> ;
  cdiscs:dataElementType <https://raw.githubusercontent.com/phuse-org/CTDasRDF/master/data/rdf/ct-schema.rdf#Classifier.Character> ;
  cdiscs:supportedBySDTMIG "true"^^xsd:boolean ;
  cdiscs:supportedBySEND "true"^^xsd:boolean ;
.
<https://raw.githubusercontent.com/phuse-org/CTDasRDF/master/data/rdf/sdtm-1-3.ttl#DataElement.Intervention.--VAMT>
  rdf:type <http://rdf.cdisc.org/mms#DataElement> ;
  <http://rdf.cdisc.org/mms#context> sdtm-1-3:InterventionVariables ;
  <http://rdf.cdisc.org/mms#dataElementDescription> "Amount of the treatment vehicle administered or given."^^xsd:string ;
  <http://rdf.cdisc.org/mms#dataElementLabel> "Treatment Vehicle Amount"^^xsd:string ;
  <http://rdf.cdisc.org/mms#dataElementName> "--VAMT"^^xsd:string ;
  <http://rdf.cdisc.org/mms#dataElementType> "xsd:decimal"^^xsd:anySimpleType ;
  <http://rdf.cdisc.org/mms#ordinal> "24"^^xsd:positiveInteger ;
  cdiscs:dataElementRole <https://raw.githubusercontent.com/phuse-org/CTDasRDF/master/data/rdf/sdtm-1-3.ttl#Classifier.RecordQualifier> ;
  cdiscs:dataElementType <https://raw.githubusercontent.com/phuse-org/CTDasRDF/master/data/rdf/ct-schema.rdf#Classifier.Numeric> ;
  cdiscs:supportedBySDTMIG "true"^^xsd:boolean ;
  cdiscs:supportedBySEND "true"^^xsd:boolean ;
.
<https://raw.githubusercontent.com/phuse-org/CTDasRDF/master/data/rdf/sdtm-1-3.ttl#DataElement.Intervention.--VAMTU>
  rdf:type <http://rdf.cdisc.org/mms#DataElement> ;
  <http://rdf.cdisc.org/mms#context> sdtm-1-3:InterventionVariables ;
  <http://rdf.cdisc.org/mms#dataElementDescription> "Units for the treatment vehicle. Examples: mL, mg."^^xsd:string ;
  <http://rdf.cdisc.org/mms#dataElementLabel> "Treatment Vehicle Amount Units"^^xsd:string ;
  <http://rdf.cdisc.org/mms#dataElementName> "--VAMTU"^^xsd:string ;
  <http://rdf.cdisc.org/mms#dataElementType> "xsd:string"^^xsd:anySimpleType ;
  <http://rdf.cdisc.org/mms#ordinal> "25"^^xsd:positiveInteger ;
  cdiscs:dataElementRole <https://raw.githubusercontent.com/phuse-org/CTDasRDF/master/data/rdf/sdtm-1-3.ttl#Classifier.VariableQualifier> ;
  cdiscs:dataElementType <https://raw.githubusercontent.com/phuse-org/CTDasRDF/master/data/rdf/ct-schema.rdf#Classifier.Character> ;
  cdiscs:qualifies <https://raw.githubusercontent.com/phuse-org/CTDasRDF/master/data/rdf/sdtm-1-3.ttl#DataElement.Intervention.--VAMT> ;
  cdiscs:supportedBySDTMIG "true"^^xsd:boolean ;
  cdiscs:supportedBySEND "true"^^xsd:boolean ;
.
<https://raw.githubusercontent.com/phuse-org/CTDasRDF/master/data/rdf/sdtm-1-3.ttl#DataElement.Timing.--DETECT>
  rdf:type <http://rdf.cdisc.org/mms#DataElement> ;
  <http://rdf.cdisc.org/mms#context> sdtm-1-3:TimingVariables ;
  <http://rdf.cdisc.org/mms#dataElementDescription> "The number of days from the start of dosing to the earliest detection of a condition or pathogen."^^xsd:string ;
  <http://rdf.cdisc.org/mms#dataElementLabel> "Time in Days to Detection"^^xsd:string ;
  <http://rdf.cdisc.org/mms#dataElementName> "--DETECT"^^xsd:string ;
  <http://rdf.cdisc.org/mms#dataElementType> "xsd:decimal"^^xsd:anySimpleType ;
  <http://rdf.cdisc.org/mms#ordinal> "35"^^xsd:positiveInteger ;
  cdiscs:dataElementRole <https://raw.githubusercontent.com/phuse-org/CTDasRDF/master/data/rdf/sdtm-1-3.ttl#Classifier.TimingVariable> ;
  cdiscs:dataElementType <https://raw.githubusercontent.com/phuse-org/CTDasRDF/master/data/rdf/ct-schema.rdf#Classifier.Numeric> ;
  cdiscs:supportedBySDTMIG "false"^^xsd:boolean ;
  cdiscs:supportedBySEND "true"^^xsd:boolean ;
.
<https://raw.githubusercontent.com/phuse-org/CTDasRDF/master/data/rdf/sdtm-1-3.ttl#DataElement.Timing.--DTC>
  rdf:type <http://rdf.cdisc.org/mms#DataElement> ;
  <http://rdf.cdisc.org/mms#context> sdtm-1-3:TimingVariables ;
  <http://rdf.cdisc.org/mms#dataElementDescription> "Collection date and time of an observation represented in IS0 8601 character format."^^xsd:string ;
  <http://rdf.cdisc.org/mms#dataElementLabel> "Date/Time of Collection"^^xsd:string ;
  <http://rdf.cdisc.org/mms#dataElementName> "--DTC"^^xsd:string ;
  <http://rdf.cdisc.org/mms#dataElementType> "xsd:dateTime"^^xsd:anySimpleType ;
  <http://rdf.cdisc.org/mms#ordinal> "16"^^xsd:positiveInteger ;
  cdiscs:dataElementRole <https://raw.githubusercontent.com/phuse-org/CTDasRDF/master/data/rdf/sdtm-1-3.ttl#Classifier.TimingVariable> ;
  cdiscs:dataElementType <https://raw.githubusercontent.com/phuse-org/CTDasRDF/master/data/rdf/ct-schema.rdf#Classifier.Character> ;
  cdiscs:supportedBySDTMIG "true"^^xsd:boolean ;
  cdiscs:supportedBySEND "true"^^xsd:boolean ;
.
<https://raw.githubusercontent.com/phuse-org/CTDasRDF/master/data/rdf/sdtm-1-3.ttl#DataElement.Timing.--DUR>
  rdf:type <http://rdf.cdisc.org/mms#DataElement> ;
  <http://rdf.cdisc.org/mms#context> sdtm-1-3:TimingVariables ;
  <http://rdf.cdisc.org/mms#dataElementDescription> "Collected duration of an event, intervention, or finding represented in ISO 8601 character format. Used only if collected on the CRF and not derived."^^xsd:string ;
  <http://rdf.cdisc.org/mms#dataElementLabel> "Duration"^^xsd:string ;
  <http://rdf.cdisc.org/mms#dataElementName> "--DUR"^^xsd:string ;
  <http://rdf.cdisc.org/mms#dataElementType> "xsd:duration"^^xsd:anySimpleType ;
  <http://rdf.cdisc.org/mms#ordinal> "22"^^xsd:positiveInteger ;
  cdiscs:dataElementRole <https://raw.githubusercontent.com/phuse-org/CTDasRDF/master/data/rdf/sdtm-1-3.ttl#Classifier.TimingVariable> ;
  cdiscs:dataElementType <https://raw.githubusercontent.com/phuse-org/CTDasRDF/master/data/rdf/ct-schema.rdf#Classifier.Character> ;
  cdiscs:supportedBySDTMIG "true"^^xsd:boolean ;
  cdiscs:supportedBySEND "true"^^xsd:boolean ;
.
<https://raw.githubusercontent.com/phuse-org/CTDasRDF/master/data/rdf/sdtm-1-3.ttl#DataElement.Timing.--DY>
  rdf:type <http://rdf.cdisc.org/mms#DataElement> ;
  <http://rdf.cdisc.org/mms#context> sdtm-1-3:TimingVariables ;
  <http://rdf.cdisc.org/mms#dataElementDescription> "Actual study day of visit/collection/exam expressed in integer days relative to the sponsor-defined RFSTDTC in Demographics."^^xsd:string ;
  <http://rdf.cdisc.org/mms#dataElementLabel> "Study Day of Visit/Collection/Exam"^^xsd:string ;
  <http://rdf.cdisc.org/mms#dataElementName> "--DY"^^xsd:string ;
  <http://rdf.cdisc.org/mms#dataElementType> "xsd:integer"^^xsd:anySimpleType ;
  <http://rdf.cdisc.org/mms#ordinal> "19"^^xsd:positiveInteger ;
  cdiscs:dataElementRole <https://raw.githubusercontent.com/phuse-org/CTDasRDF/master/data/rdf/sdtm-1-3.ttl#Classifier.TimingVariable> ;
  cdiscs:dataElementType <https://raw.githubusercontent.com/phuse-org/CTDasRDF/master/data/rdf/ct-schema.rdf#Classifier.Numeric> ;
  cdiscs:supportedBySDTMIG "true"^^xsd:boolean ;
  cdiscs:supportedBySEND "true"^^xsd:boolean ;
.
<https://raw.githubusercontent.com/phuse-org/CTDasRDF/master/data/rdf/sdtm-1-3.ttl#DataElement.Timing.--ELTM>
  rdf:type <http://rdf.cdisc.org/mms#DataElement> ;
  <http://rdf.cdisc.org/mms#context> sdtm-1-3:TimingVariables ;
  <http://rdf.cdisc.org/mms#dataElementDescription> "Planned Elapsed time in ISO 8601 character format relative to a planned fixed reference (--TPTREF) such as \"Previous Dose\" or \"Previous Meal\". This variable is useful where there are repetitive measures. Not a clock time or a date/time variable, but an interval, represented as ISO duration."^^xsd:string ;
  <http://rdf.cdisc.org/mms#dataElementLabel> "Planned Elapsed Time from Time Point Ref"^^xsd:string ;
  <http://rdf.cdisc.org/mms#dataElementName> "--ELTM"^^xsd:string ;
  <http://rdf.cdisc.org/mms#dataElementType> "xsd:duration"^^xsd:anySimpleType ;
  <http://rdf.cdisc.org/mms#ordinal> "25"^^xsd:positiveInteger ;
  cdiscs:dataElementRole <https://raw.githubusercontent.com/phuse-org/CTDasRDF/master/data/rdf/sdtm-1-3.ttl#Classifier.TimingVariable> ;
  cdiscs:dataElementType <https://raw.githubusercontent.com/phuse-org/CTDasRDF/master/data/rdf/ct-schema.rdf#Classifier.Character> ;
  cdiscs:supportedBySDTMIG "true"^^xsd:boolean ;
  cdiscs:supportedBySEND "true"^^xsd:boolean ;
.
<https://raw.githubusercontent.com/phuse-org/CTDasRDF/master/data/rdf/sdtm-1-3.ttl#DataElement.Timing.--ENDTC>
  rdf:type <http://rdf.cdisc.org/mms#DataElement> ;
  <http://rdf.cdisc.org/mms#context> sdtm-1-3:TimingVariables ;
  <http://rdf.cdisc.org/mms#dataElementDescription> "End date/time of the observation represented in IS0 8601 character format."^^xsd:string ;
  <http://rdf.cdisc.org/mms#dataElementLabel> "End Date/Time of Observation"^^xsd:string ;
  <http://rdf.cdisc.org/mms#dataElementName> "--ENDTC"^^xsd:string ;
  <http://rdf.cdisc.org/mms#dataElementType> "xsd:dateTime"^^xsd:anySimpleType ;
  <http://rdf.cdisc.org/mms#ordinal> "18"^^xsd:positiveInteger ;
  cdiscs:dataElementRole <https://raw.githubusercontent.com/phuse-org/CTDasRDF/master/data/rdf/sdtm-1-3.ttl#Classifier.TimingVariable> ;
  cdiscs:dataElementType <https://raw.githubusercontent.com/phuse-org/CTDasRDF/master/data/rdf/ct-schema.rdf#Classifier.Character> ;
  cdiscs:supportedBySDTMIG "true"^^xsd:boolean ;
  cdiscs:supportedBySEND "true"^^xsd:boolean ;
.
<https://raw.githubusercontent.com/phuse-org/CTDasRDF/master/data/rdf/sdtm-1-3.ttl#DataElement.Timing.--ENDY>
  rdf:type <http://rdf.cdisc.org/mms#DataElement> ;
  <http://rdf.cdisc.org/mms#context> sdtm-1-3:TimingVariables ;
  <http://rdf.cdisc.org/mms#dataElementDescription> "Actual study day of end of observation expressed in integer days relative to the sponsor-defined RFSTDTC in Demographics."^^xsd:string ;
  <http://rdf.cdisc.org/mms#dataElementLabel> "Study Day of End of Observation"^^xsd:string ;
  <http://rdf.cdisc.org/mms#dataElementName> "--ENDY"^^xsd:string ;
  <http://rdf.cdisc.org/mms#dataElementType> "xsd:integer"^^xsd:anySimpleType ;
  <http://rdf.cdisc.org/mms#ordinal> "21"^^xsd:positiveInteger ;
  cdiscs:dataElementRole <https://raw.githubusercontent.com/phuse-org/CTDasRDF/master/data/rdf/sdtm-1-3.ttl#Classifier.TimingVariable> ;
  cdiscs:dataElementType <https://raw.githubusercontent.com/phuse-org/CTDasRDF/master/data/rdf/ct-schema.rdf#Classifier.Numeric> ;
  cdiscs:supportedBySDTMIG "true"^^xsd:boolean ;
  cdiscs:supportedBySEND "true"^^xsd:boolean ;
.
<https://raw.githubusercontent.com/phuse-org/CTDasRDF/master/data/rdf/sdtm-1-3.ttl#DataElement.Timing.--ENRF>
  rdf:type <http://rdf.cdisc.org/mms#DataElement> ;
  <http://rdf.cdisc.org/mms#context> sdtm-1-3:TimingVariables ;
  <http://rdf.cdisc.org/mms#dataElementDescription> "Identifies the end of the observation as being before, during or after the sponsor-defined reference period. The sponsor-defined reference period is a continuous period of time defined by a discrete starting point and a discrete ending point represented by RFSTDTC and RFENDTC in Demographics."^^xsd:string ;
  <http://rdf.cdisc.org/mms#dataElementLabel> "End Relative to Reference Period"^^xsd:string ;
  <http://rdf.cdisc.org/mms#dataElementName> "--ENRF"^^xsd:string ;
  <http://rdf.cdisc.org/mms#dataElementType> "xsd:string"^^xsd:anySimpleType ;
  <http://rdf.cdisc.org/mms#ordinal> "29"^^xsd:positiveInteger ;
  cdiscs:dataElementRole <https://raw.githubusercontent.com/phuse-org/CTDasRDF/master/data/rdf/sdtm-1-3.ttl#Classifier.TimingVariable> ;
  cdiscs:dataElementType <https://raw.githubusercontent.com/phuse-org/CTDasRDF/master/data/rdf/ct-schema.rdf#Classifier.Character> ;
  cdiscs:supportedBySDTMIG "true"^^xsd:boolean ;
  cdiscs:supportedBySEND "true"^^xsd:boolean ;
.
<https://raw.githubusercontent.com/phuse-org/CTDasRDF/master/data/rdf/sdtm-1-3.ttl#DataElement.Timing.--ENRTPT>
  rdf:type <http://rdf.cdisc.org/mms#DataElement> ;
  <http://rdf.cdisc.org/mms#context> sdtm-1-3:TimingVariables ;
  <http://rdf.cdisc.org/mms#dataElementDescription> "Identifies the end of the observation as being before or after the sponsor-defined reference time point defined by variable --ENTPT."^^xsd:string ;
  <http://rdf.cdisc.org/mms#dataElementLabel> "End Relative to Reference Time Point"^^xsd:string ;
  <http://rdf.cdisc.org/mms#dataElementName> "--ENRTPT"^^xsd:string ;
  <http://rdf.cdisc.org/mms#dataElementType> "xsd:string"^^xsd:anySimpleType ;
  <http://rdf.cdisc.org/mms#ordinal> "33"^^xsd:positiveInteger ;
  cdiscs:dataElementRole <https://raw.githubusercontent.com/phuse-org/CTDasRDF/master/data/rdf/sdtm-1-3.ttl#Classifier.TimingVariable> ;
  cdiscs:dataElementType <https://raw.githubusercontent.com/phuse-org/CTDasRDF/master/data/rdf/ct-schema.rdf#Classifier.Character> ;
  cdiscs:supportedBySDTMIG "true"^^xsd:boolean ;
  cdiscs:supportedBySEND "true"^^xsd:boolean ;
.
<https://raw.githubusercontent.com/phuse-org/CTDasRDF/master/data/rdf/sdtm-1-3.ttl#DataElement.Timing.--ENTPT>
  rdf:type <http://rdf.cdisc.org/mms#DataElement> ;
  <http://rdf.cdisc.org/mms#context> sdtm-1-3:TimingVariables ;
  <http://rdf.cdisc.org/mms#dataElementDescription> "Description or date/time in ISO 8601 character format of the sponsor-defined reference point referred to by --ENRTPT. Examples: \"2003-12-25\" or \"VISIT 2\"."^^xsd:string ;
  <http://rdf.cdisc.org/mms#dataElementLabel> "End Reference Time Point"^^xsd:string ;
  <http://rdf.cdisc.org/mms#dataElementName> "--ENTPT"^^xsd:string ;
  <http://rdf.cdisc.org/mms#dataElementType> "xsd:string"^^xsd:anySimpleType ;
  <http://rdf.cdisc.org/mms#ordinal> "34"^^xsd:positiveInteger ;
  cdiscs:dataElementRole <https://raw.githubusercontent.com/phuse-org/CTDasRDF/master/data/rdf/sdtm-1-3.ttl#Classifier.TimingVariable> ;
  cdiscs:dataElementType <https://raw.githubusercontent.com/phuse-org/CTDasRDF/master/data/rdf/ct-schema.rdf#Classifier.Character> ;
  cdiscs:supportedBySDTMIG "true"^^xsd:boolean ;
  cdiscs:supportedBySEND "true"^^xsd:boolean ;
.
<https://raw.githubusercontent.com/phuse-org/CTDasRDF/master/data/rdf/sdtm-1-3.ttl#DataElement.Timing.--EVLINT>
  rdf:type <http://rdf.cdisc.org/mms#DataElement> ;
  <http://rdf.cdisc.org/mms#context> sdtm-1-3:TimingVariables ;
  <http://rdf.cdisc.org/mms#dataElementDescription> "Duration of  interval associated with an observation such as a finding --TESTCD, represented in ISO 8601 character format. Example: -P2M to represent a period of the past 2 months as the evaluation interval for a question from a questionnaire such as SF-36."^^xsd:string ;
  <http://rdf.cdisc.org/mms#dataElementLabel> "Evaluation Interval"^^xsd:string ;
  <http://rdf.cdisc.org/mms#dataElementName> "--EVLINT"^^xsd:string ;
  <http://rdf.cdisc.org/mms#dataElementType> "xsd:duration"^^xsd:anySimpleType ;
  <http://rdf.cdisc.org/mms#ordinal> "30"^^xsd:positiveInteger ;
  cdiscs:dataElementRole <https://raw.githubusercontent.com/phuse-org/CTDasRDF/master/data/rdf/sdtm-1-3.ttl#Classifier.TimingVariable> ;
  cdiscs:dataElementType <https://raw.githubusercontent.com/phuse-org/CTDasRDF/master/data/rdf/ct-schema.rdf#Classifier.Character> ;
  cdiscs:supportedBySDTMIG "true"^^xsd:boolean ;
  cdiscs:supportedBySEND "true"^^xsd:boolean ;
.
<https://raw.githubusercontent.com/phuse-org/CTDasRDF/master/data/rdf/sdtm-1-3.ttl#DataElement.Timing.--RFTDTC>
  rdf:type <http://rdf.cdisc.org/mms#DataElement> ;
  <http://rdf.cdisc.org/mms#context> sdtm-1-3:TimingVariables ;
  <http://rdf.cdisc.org/mms#dataElementDescription> "Date/time for a fixed reference time point defined by --TPTREF in ISO 8601 character format."^^xsd:string ;
  <http://rdf.cdisc.org/mms#dataElementLabel> "Date/Time of Reference Time Point"^^xsd:string ;
  <http://rdf.cdisc.org/mms#dataElementName> "--RFTDTC"^^xsd:string ;
  <http://rdf.cdisc.org/mms#dataElementType> "xsd:dateTime"^^xsd:anySimpleType ;
  <http://rdf.cdisc.org/mms#ordinal> "27"^^xsd:positiveInteger ;
  cdiscs:dataElementRole <https://raw.githubusercontent.com/phuse-org/CTDasRDF/master/data/rdf/sdtm-1-3.ttl#Classifier.TimingVariable> ;
  cdiscs:dataElementType <https://raw.githubusercontent.com/phuse-org/CTDasRDF/master/data/rdf/ct-schema.rdf#Classifier.Character> ;
  cdiscs:supportedBySDTMIG "true"^^xsd:boolean ;
  cdiscs:supportedBySEND "true"^^xsd:boolean ;
.
<https://raw.githubusercontent.com/phuse-org/CTDasRDF/master/data/rdf/sdtm-1-3.ttl#DataElement.Timing.--STDTC>
  rdf:type <http://rdf.cdisc.org/mms#DataElement> ;
  <http://rdf.cdisc.org/mms#context> sdtm-1-3:TimingVariables ;
  <http://rdf.cdisc.org/mms#dataElementDescription> "Start date/time of an observation represented in IS0 8601 character format."^^xsd:string ;
  <http://rdf.cdisc.org/mms#dataElementLabel> "Start Date/Time of Observation"^^xsd:string ;
  <http://rdf.cdisc.org/mms#dataElementName> "--STDTC"^^xsd:string ;
  <http://rdf.cdisc.org/mms#dataElementType> "xsd:dateTime"^^xsd:anySimpleType ;
  <http://rdf.cdisc.org/mms#ordinal> "17"^^xsd:positiveInteger ;
  cdiscs:dataElementRole <https://raw.githubusercontent.com/phuse-org/CTDasRDF/master/data/rdf/sdtm-1-3.ttl#Classifier.TimingVariable> ;
  cdiscs:dataElementType <https://raw.githubusercontent.com/phuse-org/CTDasRDF/master/data/rdf/ct-schema.rdf#Classifier.Character> ;
  cdiscs:supportedBySDTMIG "true"^^xsd:boolean ;
  cdiscs:supportedBySEND "true"^^xsd:boolean ;
.
<https://raw.githubusercontent.com/phuse-org/CTDasRDF/master/data/rdf/sdtm-1-3.ttl#DataElement.Timing.--STDY>
  rdf:type <http://rdf.cdisc.org/mms#DataElement> ;
  <http://rdf.cdisc.org/mms#context> sdtm-1-3:TimingVariables ;
  <http://rdf.cdisc.org/mms#dataElementDescription> "Actual study day of start of observation expressed in integer days relative to the sponsor-defined RFSTDTC in Demographics."^^xsd:string ;
  <http://rdf.cdisc.org/mms#dataElementLabel> "Study Day of Start of Observation"^^xsd:string ;
  <http://rdf.cdisc.org/mms#dataElementName> "--STDY"^^xsd:string ;
  <http://rdf.cdisc.org/mms#dataElementType> "xsd:integer"^^xsd:anySimpleType ;
  <http://rdf.cdisc.org/mms#ordinal> "20"^^xsd:positiveInteger ;
  cdiscs:dataElementRole <https://raw.githubusercontent.com/phuse-org/CTDasRDF/master/data/rdf/sdtm-1-3.ttl#Classifier.TimingVariable> ;
  cdiscs:dataElementType <https://raw.githubusercontent.com/phuse-org/CTDasRDF/master/data/rdf/ct-schema.rdf#Classifier.Numeric> ;
  cdiscs:supportedBySDTMIG "true"^^xsd:boolean ;
  cdiscs:supportedBySEND "true"^^xsd:boolean ;
.
<https://raw.githubusercontent.com/phuse-org/CTDasRDF/master/data/rdf/sdtm-1-3.ttl#DataElement.Timing.--STRF>
  rdf:type <http://rdf.cdisc.org/mms#DataElement> ;
  <http://rdf.cdisc.org/mms#context> sdtm-1-3:TimingVariables ;
  <http://rdf.cdisc.org/mms#dataElementDescription> "Identifies the start of the observation as being before, during, or after the sponsor-defined reference period. The sponsor-defined reference period is a continuous period of time defined by a discrete starting point and a discrete ending point represented by RFSTDTC and RFENDTC in Demographics."^^xsd:string ;
  <http://rdf.cdisc.org/mms#dataElementLabel> "Start Relative to Reference Period"^^xsd:string ;
  <http://rdf.cdisc.org/mms#dataElementName> "--STRF"^^xsd:string ;
  <http://rdf.cdisc.org/mms#dataElementType> "xsd:string"^^xsd:anySimpleType ;
  <http://rdf.cdisc.org/mms#ordinal> "28"^^xsd:positiveInteger ;
  cdiscs:dataElementRole <https://raw.githubusercontent.com/phuse-org/CTDasRDF/master/data/rdf/sdtm-1-3.ttl#Classifier.TimingVariable> ;
  cdiscs:dataElementType <https://raw.githubusercontent.com/phuse-org/CTDasRDF/master/data/rdf/ct-schema.rdf#Classifier.Character> ;
  cdiscs:supportedBySDTMIG "true"^^xsd:boolean ;
  cdiscs:supportedBySEND "true"^^xsd:boolean ;
.
<https://raw.githubusercontent.com/phuse-org/CTDasRDF/master/data/rdf/sdtm-1-3.ttl#DataElement.Timing.--STRTPT>
  rdf:type <http://rdf.cdisc.org/mms#DataElement> ;
  <http://rdf.cdisc.org/mms#context> sdtm-1-3:TimingVariables ;
  <http://rdf.cdisc.org/mms#dataElementDescription> "Identifies the start of the observation as being before or after the sponsor-defined reference time point defined by variable --STTPT."^^xsd:string ;
  <http://rdf.cdisc.org/mms#dataElementLabel> "Start Relative to Reference Time Point"^^xsd:string ;
  <http://rdf.cdisc.org/mms#dataElementName> "--STRTPT"^^xsd:string ;
  <http://rdf.cdisc.org/mms#dataElementType> "xsd:string"^^xsd:anySimpleType ;
  <http://rdf.cdisc.org/mms#ordinal> "31"^^xsd:positiveInteger ;
  cdiscs:dataElementRole <https://raw.githubusercontent.com/phuse-org/CTDasRDF/master/data/rdf/sdtm-1-3.ttl#Classifier.TimingVariable> ;
  cdiscs:dataElementType <https://raw.githubusercontent.com/phuse-org/CTDasRDF/master/data/rdf/ct-schema.rdf#Classifier.Character> ;
  cdiscs:supportedBySDTMIG "true"^^xsd:boolean ;
  cdiscs:supportedBySEND "true"^^xsd:boolean ;
.
<https://raw.githubusercontent.com/phuse-org/CTDasRDF/master/data/rdf/sdtm-1-3.ttl#DataElement.Timing.--STTPT>
  rdf:type <http://rdf.cdisc.org/mms#DataElement> ;
  <http://rdf.cdisc.org/mms#context> sdtm-1-3:TimingVariables ;
  <http://rdf.cdisc.org/mms#dataElementDescription> "Description or date/time in ISO 8601 character format of the sponsor-defined reference point referred to by --STRTPT. Examples: \"2003-12-15\" or \"VISIT 1\"."^^xsd:string ;
  <http://rdf.cdisc.org/mms#dataElementLabel> "Start Reference Time Point"^^xsd:string ;
  <http://rdf.cdisc.org/mms#dataElementName> "--STTPT"^^xsd:string ;
  <http://rdf.cdisc.org/mms#dataElementType> "xsd:string"^^xsd:anySimpleType ;
  <http://rdf.cdisc.org/mms#ordinal> "32"^^xsd:positiveInteger ;
  cdiscs:dataElementRole <https://raw.githubusercontent.com/phuse-org/CTDasRDF/master/data/rdf/sdtm-1-3.ttl#Classifier.TimingVariable> ;
  cdiscs:dataElementType <https://raw.githubusercontent.com/phuse-org/CTDasRDF/master/data/rdf/ct-schema.rdf#Classifier.Character> ;
  cdiscs:supportedBySDTMIG "true"^^xsd:boolean ;
  cdiscs:supportedBySEND "true"^^xsd:boolean ;
.
<https://raw.githubusercontent.com/phuse-org/CTDasRDF/master/data/rdf/sdtm-1-3.ttl#DataElement.Timing.--TPT>
  rdf:type <http://rdf.cdisc.org/mms#DataElement> ;
  <http://rdf.cdisc.org/mms#context> sdtm-1-3:TimingVariables ;
  <http://rdf.cdisc.org/mms#dataElementDescription> "Text description of time when a measurement or observation should be taken as defined in the protocol. This may be represented as an elapsed time relative to a fixed reference point, such as time of last dose. See --TPTNUM and --TPTREF."^^xsd:string ;
  <http://rdf.cdisc.org/mms#dataElementLabel> "Planned Time Point Name"^^xsd:string ;
  <http://rdf.cdisc.org/mms#dataElementName> "--TPT"^^xsd:string ;
  <http://rdf.cdisc.org/mms#dataElementType> "xsd:string"^^xsd:anySimpleType ;
  <http://rdf.cdisc.org/mms#ordinal> "23"^^xsd:positiveInteger ;
  cdiscs:dataElementRole <https://raw.githubusercontent.com/phuse-org/CTDasRDF/master/data/rdf/sdtm-1-3.ttl#Classifier.TimingVariable> ;
  cdiscs:dataElementType <https://raw.githubusercontent.com/phuse-org/CTDasRDF/master/data/rdf/ct-schema.rdf#Classifier.Character> ;
  cdiscs:supportedBySDTMIG "true"^^xsd:boolean ;
  cdiscs:supportedBySEND "true"^^xsd:boolean ;
.
<https://raw.githubusercontent.com/phuse-org/CTDasRDF/master/data/rdf/sdtm-1-3.ttl#DataElement.Timing.--TPTNUM>
  rdf:type <http://rdf.cdisc.org/mms#DataElement> ;
  <http://rdf.cdisc.org/mms#context> sdtm-1-3:TimingVariables ;
  <http://rdf.cdisc.org/mms#dataElementDescription> "Numeric version of planned time point used in sorting."^^xsd:string ;
  <http://rdf.cdisc.org/mms#dataElementLabel> "Planned Time Point Number"^^xsd:string ;
  <http://rdf.cdisc.org/mms#dataElementName> "--TPTNUM"^^xsd:string ;
  <http://rdf.cdisc.org/mms#dataElementType> "xsd:decimal"^^xsd:anySimpleType ;
  <http://rdf.cdisc.org/mms#ordinal> "24"^^xsd:positiveInteger ;
  cdiscs:dataElementRole <https://raw.githubusercontent.com/phuse-org/CTDasRDF/master/data/rdf/sdtm-1-3.ttl#Classifier.TimingVariable> ;
  cdiscs:dataElementType <https://raw.githubusercontent.com/phuse-org/CTDasRDF/master/data/rdf/ct-schema.rdf#Classifier.Numeric> ;
  cdiscs:supportedBySDTMIG "true"^^xsd:boolean ;
  cdiscs:supportedBySEND "true"^^xsd:boolean ;
.
<https://raw.githubusercontent.com/phuse-org/CTDasRDF/master/data/rdf/sdtm-1-3.ttl#DataElement.Timing.--TPTREF>
  rdf:type <http://rdf.cdisc.org/mms#DataElement> ;
  <http://rdf.cdisc.org/mms#context> sdtm-1-3:TimingVariables ;
  <http://rdf.cdisc.org/mms#dataElementDescription> "Description of the fixed reference point referred to by --ELTM, --TPTNUM, and --TPT. Examples: PREVIOUS DOSE, PREVIOUS MEAL."^^xsd:string ;
  <http://rdf.cdisc.org/mms#dataElementLabel> "Time Point Reference"^^xsd:string ;
  <http://rdf.cdisc.org/mms#dataElementName> "--TPTREF"^^xsd:string ;
  <http://rdf.cdisc.org/mms#dataElementType> "xsd:string"^^xsd:anySimpleType ;
  <http://rdf.cdisc.org/mms#ordinal> "26"^^xsd:positiveInteger ;
  cdiscs:dataElementRole <https://raw.githubusercontent.com/phuse-org/CTDasRDF/master/data/rdf/sdtm-1-3.ttl#Classifier.TimingVariable> ;
  cdiscs:dataElementType <https://raw.githubusercontent.com/phuse-org/CTDasRDF/master/data/rdf/ct-schema.rdf#Classifier.Character> ;
  cdiscs:supportedBySDTMIG "true"^^xsd:boolean ;
  cdiscs:supportedBySEND "true"^^xsd:boolean ;
.
<https://raw.githubusercontent.com/phuse-org/CTDasRDF/master/data/rdf/sdtm-1-3.ttl#DataElement.Timing.EPOCH>
  rdf:type <http://rdf.cdisc.org/mms#DataElement> ;
  <http://rdf.cdisc.org/mms#context> sdtm-1-3:TimingVariables ;
  <http://rdf.cdisc.org/mms#dataElementDescription> "Epoch associated with the start date/time of the observation, or the date/time of collection if start date/time is not collected. (See Section 3.2.2.)"^^xsd:string ;
  <http://rdf.cdisc.org/mms#dataElementLabel> "Epoch"^^xsd:string ;
  <http://rdf.cdisc.org/mms#dataElementName> "EPOCH"^^xsd:string ;
  <http://rdf.cdisc.org/mms#dataElementType> "xsd:string"^^xsd:anySimpleType ;
  <http://rdf.cdisc.org/mms#ordinal> "15"^^xsd:positiveInteger ;
  cdiscs:dataElementRole <https://raw.githubusercontent.com/phuse-org/CTDasRDF/master/data/rdf/sdtm-1-3.ttl#Classifier.TimingVariable> ;
  cdiscs:dataElementType <https://raw.githubusercontent.com/phuse-org/CTDasRDF/master/data/rdf/ct-schema.rdf#Classifier.Character> ;
  cdiscs:supportedBySDTMIG "true"^^xsd:boolean ;
  cdiscs:supportedBySEND "true"^^xsd:boolean ;
.
<https://raw.githubusercontent.com/phuse-org/CTDasRDF/master/data/rdf/sdtm-1-3.ttl#DataElement.Timing.TAETORD>
  rdf:type <http://rdf.cdisc.org/mms#DataElement> ;
  <http://rdf.cdisc.org/mms#context> sdtm-1-3:TimingVariables ;
  <http://rdf.cdisc.org/mms#dataElementDescription> "Number that gives the planned order of the Element within the Arm (see Section 3.2.2)."^^xsd:string ;
  <http://rdf.cdisc.org/mms#dataElementLabel> "Planned Order of Element within Arm"^^xsd:string ;
  <http://rdf.cdisc.org/mms#dataElementName> "TAETORD"^^xsd:string ;
  <http://rdf.cdisc.org/mms#dataElementType> "xsd:decimal"^^xsd:anySimpleType ;
  <http://rdf.cdisc.org/mms#ordinal> "14"^^xsd:positiveInteger ;
  cdiscs:dataElementRole <https://raw.githubusercontent.com/phuse-org/CTDasRDF/master/data/rdf/sdtm-1-3.ttl#Classifier.TimingVariable> ;
  cdiscs:dataElementType <https://raw.githubusercontent.com/phuse-org/CTDasRDF/master/data/rdf/ct-schema.rdf#Classifier.Numeric> ;
  cdiscs:supportedBySDTMIG "true"^^xsd:boolean ;
  cdiscs:supportedBySEND "true"^^xsd:boolean ;
.
<https://raw.githubusercontent.com/phuse-org/CTDasRDF/master/data/rdf/sdtm-1-3.ttl#DataElement.Timing.VISIT>
  rdf:type <http://rdf.cdisc.org/mms#DataElement> ;
  <http://rdf.cdisc.org/mms#context> sdtm-1-3:TimingVariables ;
  <http://rdf.cdisc.org/mms#dataElementDescription> "Protocol-defined description of a clinical encounter."^^xsd:string ;
  <http://rdf.cdisc.org/mms#dataElementLabel> "Visit Name"^^xsd:string ;
  <http://rdf.cdisc.org/mms#dataElementName> "VISIT"^^xsd:string ;
  <http://rdf.cdisc.org/mms#dataElementType> "xsd:string"^^xsd:anySimpleType ;
  <http://rdf.cdisc.org/mms#ordinal> "12"^^xsd:positiveInteger ;
  cdiscs:dataElementRole <https://raw.githubusercontent.com/phuse-org/CTDasRDF/master/data/rdf/sdtm-1-3.ttl#Classifier.TimingVariable> ;
  cdiscs:dataElementType <https://raw.githubusercontent.com/phuse-org/CTDasRDF/master/data/rdf/ct-schema.rdf#Classifier.Character> ;
  cdiscs:supportedBySDTMIG "true"^^xsd:boolean ;
  cdiscs:supportedBySEND "true"^^xsd:boolean ;
.
<https://raw.githubusercontent.com/phuse-org/CTDasRDF/master/data/rdf/sdtm-1-3.ttl#DataElement.Timing.VISITDY>
  rdf:type <http://rdf.cdisc.org/mms#DataElement> ;
  <http://rdf.cdisc.org/mms#context> sdtm-1-3:TimingVariables ;
  <http://rdf.cdisc.org/mms#dataElementDescription> "Planned study day of VISIT. Should be an integer."^^xsd:string ;
  <http://rdf.cdisc.org/mms#dataElementLabel> "Planned Study Day of Visit"^^xsd:string ;
  <http://rdf.cdisc.org/mms#dataElementName> "VISITDY"^^xsd:string ;
  <http://rdf.cdisc.org/mms#dataElementType> "xsd:integer"^^xsd:anySimpleType ;
  <http://rdf.cdisc.org/mms#ordinal> "13"^^xsd:positiveInteger ;
  cdiscs:dataElementRole <https://raw.githubusercontent.com/phuse-org/CTDasRDF/master/data/rdf/sdtm-1-3.ttl#Classifier.TimingVariable> ;
  cdiscs:dataElementType <https://raw.githubusercontent.com/phuse-org/CTDasRDF/master/data/rdf/ct-schema.rdf#Classifier.Numeric> ;
  cdiscs:supportedBySDTMIG "true"^^xsd:boolean ;
  cdiscs:supportedBySEND "true"^^xsd:boolean ;
.
<https://raw.githubusercontent.com/phuse-org/CTDasRDF/master/data/rdf/sdtm-1-3.ttl#DataElement.Timing.VISITNUM>
  rdf:type <http://rdf.cdisc.org/mms#DataElement> ;
  <http://rdf.cdisc.org/mms#context> sdtm-1-3:TimingVariables ;
  <http://rdf.cdisc.org/mms#dataElementDescription> "Clinical encounter number. Numeric version of VISIT, used for sorting."^^xsd:string ;
  <http://rdf.cdisc.org/mms#dataElementLabel> "Visit Number"^^xsd:string ;
  <http://rdf.cdisc.org/mms#dataElementName> "VISITNUM"^^xsd:string ;
  <http://rdf.cdisc.org/mms#dataElementType> "xsd:decimal"^^xsd:anySimpleType ;
  <http://rdf.cdisc.org/mms#ordinal> "11"^^xsd:positiveInteger ;
  cdiscs:dataElementRole <https://raw.githubusercontent.com/phuse-org/CTDasRDF/master/data/rdf/sdtm-1-3.ttl#Classifier.TimingVariable> ;
  cdiscs:dataElementType <https://raw.githubusercontent.com/phuse-org/CTDasRDF/master/data/rdf/ct-schema.rdf#Classifier.Numeric> ;
  cdiscs:supportedBySDTMIG "true"^^xsd:boolean ;
  cdiscs:supportedBySEND "true"^^xsd:boolean ;
.
sdtm-1-3:EventVariables
  rdf:type <http://rdf.cdisc.org/mms#VariableGrouping> ;
  <http://rdf.cdisc.org/mms#context> <https://raw.githubusercontent.com/phuse-org/CTDasRDF/master/data/rdf/sdtm-1-3.ttl#Model.SDTM-1-3> ;
  <http://rdf.cdisc.org/mms#contextLabel> "Event Observation Class Variables"^^xsd:string ;
  <http://rdf.cdisc.org/mms#ordinal> "2"^^xsd:positiveInteger ;
.
sdtm-1-3:FindingVariables
  rdf:type <http://rdf.cdisc.org/mms#VariableGrouping> ;
  <http://rdf.cdisc.org/mms#context> <https://raw.githubusercontent.com/phuse-org/CTDasRDF/master/data/rdf/sdtm-1-3.ttl#Model.SDTM-1-3> ;
  <http://rdf.cdisc.org/mms#contextLabel> "Findings Observation Class Variables"^^xsd:string ;
  <http://rdf.cdisc.org/mms#ordinal> "3"^^xsd:positiveInteger ;
.
sdtm-1-3:FindingsAboutVariables
  rdf:type <http://rdf.cdisc.org/mms#VariableGrouping> ;
  <http://rdf.cdisc.org/mms#context> <https://raw.githubusercontent.com/phuse-org/CTDasRDF/master/data/rdf/sdtm-1-3.ttl#Model.SDTM-1-3> ;
  <http://rdf.cdisc.org/mms#contextLabel> "Findings About Events or Interventions Variables"^^xsd:string ;
  <http://rdf.cdisc.org/mms#ordinal> "4"^^xsd:positiveInteger ;
.
sdtm-1-3:IdentifierVariables
  rdf:type <http://rdf.cdisc.org/mms#VariableGrouping> ;
  <http://rdf.cdisc.org/mms#context> <https://raw.githubusercontent.com/phuse-org/CTDasRDF/master/data/rdf/sdtm-1-3.ttl#Model.SDTM-1-3> ;
  <http://rdf.cdisc.org/mms#contextLabel> "General Observation Class Identifier Variables"^^xsd:string ;
  <http://rdf.cdisc.org/mms#ordinal> "5"^^xsd:positiveInteger ;
.
sdtm-1-3:InterventionVariables
  rdf:type <http://rdf.cdisc.org/mms#VariableGrouping> ;
  <http://rdf.cdisc.org/mms#context> <https://raw.githubusercontent.com/phuse-org/CTDasRDF/master/data/rdf/sdtm-1-3.ttl#Model.SDTM-1-3> ;
  <http://rdf.cdisc.org/mms#contextLabel> "Interventions Observation Class Variables"^^xsd:string ;
  <http://rdf.cdisc.org/mms#ordinal> "1"^^xsd:positiveInteger ;
.
<https://raw.githubusercontent.com/phuse-org/CTDasRDF/master/data/rdf/sdtm-1-3.ttl#Model.SDTM-1-3>
  rdf:type <http://rdf.cdisc.org/mms#Model> ;
  <http://rdf.cdisc.org/mms#contextDescription> "The Study Data Tabulation Model is a CDISC defined model for the tabulation of clinical trial data. Among others, it specifies the general structure of the General Observation Classes, more specifically the The Study Data Tabulation Model is a CDISC defined model for the tabulation of clinical trial data. Among others, it specifies the general structure of the General Observation Classes, more specifically the Interventions, Events, and Findings classes."^^xsd:string ;
  <http://rdf.cdisc.org/mms#contextLabel> "Study Data Tabulation Model (SDTM) Version 1.3"^^xsd:string ;
  <http://rdf.cdisc.org/mms#contextName> "sdtm-1-3"^^xsd:string ;
.
sdtm-1-3:TimingVariables
  rdf:type <http://rdf.cdisc.org/mms#VariableGrouping> ;
  <http://rdf.cdisc.org/mms#context> <https://raw.githubusercontent.com/phuse-org/CTDasRDF/master/data/rdf/sdtm-1-3.ttl#Model.SDTM-1-3> ;
  <http://rdf.cdisc.org/mms#contextLabel> "General Observation Class Timing Variables"^^xsd:string ;
  <http://rdf.cdisc.org/mms#ordinal> "6"^^xsd:positiveInteger ;
.
