"studyid","domain","usubjid","subjid","rfstdtc","rfendtc","rfxstdtc","rfxendtc","rficdtc","rfpendtc","dthdtc","dthfl","siteid","age","ageu","sex","race","ethnic","armcd","arm","actarmcd","actarm","country","dmdtc","dmdy"
"CDISCPILOT01","DM","01-701-1015","1015","2014-01-02","2014-07-02","2014-01-02","2014-07-02","","2014-07-02T11:45","","","701",63,"YEARS","F","WHITE","HISPANIC OR LATINO","Pbo","Placebo","Pbo","Placebo","USA","2013-12-26",-7
