"studyid","domain","usubjid","subjid","rfstdtc","rfendtc","rfxstdtc","rfxendtc","rficdtc","rfpendtc","dthdtc","dthfl","siteid","age","ageu","sex","race","ethnic","armcd","arm","actarmcd","actarm","country","dmdtc","dmdy","brthdate"
"CDISCPILOT01","DM","01-701-1015","1015","2014-01-02","2014-07-02","2014-01-02","2014-07-02","2013-12-26","2014-07-02T11:45","2013-12-26","Y","701",63,"YEARS","F","WHITE","HISPANIC OR LATINO","Pbo","Placebo","Pbo","Placebo","USA","2013-12-26",-7,"1951-01-02"
"CDISCPILOT01","DM","01-701-1023","1023","2012-08-05","2012-09-02","2012-08-05","2012-09-01","2012-07-22","2013-02-18","","","701",64,"YEARS","M","WHITE","HISPANIC OR LATINO","Pbo","Placebo","Pbo","Placebo","USA","2012-07-22",-14,"1948-08-05"
"CDISCPILOT01","DM","01-701-1028","1028","2013-07-19","2014-01-14","2013-07-19","2014-01-14","2013-07-11","2014-01-14T11:10","","","701",71,"YEARS","M","WHITE","NOT HISPANIC OR LATINO","Xan_Hi","Xanomeline High Dose","Xan_Hi","Xanomeline High Dose","USA","2013-07-11",-8,"1942-07-19"
