,studyid,domain,usubjid,subjid,rfstdtc,rfendtc,rfxstdtc,rfxendtc,rficdtc,rfpendtc,dthdtc,dthfl,siteid,age,ageu,sex,race,ethnic,armcd,arm,actarmcd,actarm,country,dmdtc,dmdy
1,CDISCPILOT01,DM,01-701-1015,1015,1/2/2014,7/2/2014,1/2/2014,7/2/2014,,2014-07-02T11:45,,,701,63,YEARS,F,WHITE,HISPANIC OR LATINO,Pbo,Placebo,Pbo,Placebo,USA,12/26/2013,-7
2,CDISCPILOT01,DM,01-701-1023,1023,8/5/2012,9/2/2012,8/5/2012,9/1/2012,,2/18/2013,,,701,64,YEARS,M,WHITE,HISPANIC OR LATINO,Pbo,Placebo,Pbo,Placebo,USA,7/22/2012,-14
3,CDISCPILOT01,DM,01-701-1028,1028,7/19/2013,1/14/2014,7/19/2013,1/14/2014,,2014-01-14T11:10,,,701,71,YEARS,M,WHITE,NOT HISPANIC OR LATINO,Xan_Hi,Xanomeline High Dose,Xan_Hi,Xanomeline High Dose,USA,7/11/2013,-8
4,CDISCPILOT01,DM,01-701-1033,1033,3/18/2014,4/14/2014,3/18/2014,3/31/2014,,9/15/2014,,,701,74,YEARS,M,WHITE,NOT HISPANIC OR LATINO,Xan_Lo,Xanomeline Low Dose,Xan_Lo,Xanomeline Low Dose,USA,3/10/2014,-8
5,CDISCPILOT01,DM,01-701-1034,1034,7/1/2014,12/30/2014,7/1/2014,12/30/2014,,2014-12-30T09:50,,,701,77,YEARS,F,WHITE,NOT HISPANIC OR LATINO,Xan_Hi,Xanomeline High Dose,Xan_Hi,Xanomeline High Dose,USA,6/24/2014,-7
6,CDISCPILOT01,DM,01-701-1047,1047,2/12/2013,3/29/2013,2/12/2013,3/9/2013,,7/28/2013,,,701,85,YEARS,F,WHITE,NOT HISPANIC OR LATINO,Pbo,Placebo,Pbo,Placebo,USA,1/22/2013,-21
