"cumuDrugAdmin_im","domain","epoch","exdose","exdosfrm","exdosfrq","exdosu","exendtc","exendtc_en","exendy","exroute","exroute_en","exseq","exstdtc","exstdtc_en","exstdy","extrt","extrt_im_titleC","fixDoseInt_im","fixDoseInt_im_en","rfxendtc","rfxstdtc","studyid","usubjid","visit","visit_im_comp","visit_im_titleC","visit_im_titleCSh","visitdy","visitnum"
"2014-01-02_2014-07-02","EX","TREATMENT",0,"PATCH","QD","mg","2014-01-16","2014-01-16",15,"TRANSDERMAL","TRANSDERMAL",1,"2014-01-02","2014-01-02",1,"PLACEBO","Placebo","2014-01-02_2014-01-16","2014-01-02_2014-01-16","2014-07-02","2014-01-02","CDISCPILOT01","01-701-1015","BASELINE","BASELINE","Baseline","Baseline",1,3
"2014-01-02_2014-07-02","EX","TREATMENT",0,"PATCH","QD","mg","2014-06-18","2014-06-18",168,"TRANSDERMAL","TRANSDERMAL",2,"2014-01-17","2014-01-17",16,"PLACEBO","Placebo","2014-01-17_2014-06-18","2014-01-17_2014-06-18","2014-07-02","2014-01-02","CDISCPILOT01","01-701-1015","WEEK 2","WEEK2","Week 2","Wk2",14,4
"2014-01-02_2014-07-02","EX","TREATMENT",0,"PATCH","QD","mg","2014-07-02","2014-07-02",182,"TRANSDERMAL","TRANSDERMAL",3,"2014-06-19","2014-06-19",169,"PLACEBO","Placebo","2014-06-19_2014-07-02","2014-06-19_2014-07-02","2014-07-02","2014-01-02","CDISCPILOT01","01-701-1015","WEEK 24","WEEK24","Week 24","Wk24",168,12
"2012-08-05_2012-09-01","EX","TREATMENT",0,"PATCH","QD","mg","2012-08-27","2012-08-27",23,"TRANSDERMAL","TRANSDERMAL",1,"2012-08-05","2012-08-05",1,"PLACEBO","Placebo","2012-08-05_2012-08-27","2012-08-05_2012-08-27","2012-09-01","2012-08-05","CDISCPILOT01","01-701-1023","BASELINE","BASELINE","Baseline","Baseline",1,3
"2012-08-05_2012-09-01","EX","TREATMENT",0,"PATCH","QD","mg","2012-09-01","2012-09-01",28,"TRANSDERMAL","TRANSDERMAL",2,"2012-08-28","2012-08-28",24,"PLACEBO","Placebo","2012-08-28_2012-09-01","2012-08-28_2012-09-01","2012-09-01","2012-08-05","CDISCPILOT01","01-701-1023","WEEK 2","WEEK2","Week 2","Wk2",14,4
"2013-07-19_2014-01-14","EX","TREATMENT",54,"PATCH","QD","mg","2013-08-01","2013-08-01",14,"TRANSDERMAL","TRANSDERMAL",1,"2013-07-19","2013-07-19",1,"XANOMELINE","Xanomeline","2013-07-19_2013-08-01","2013-07-19_2013-08-01","2014-01-14","2013-07-19","CDISCPILOT01","01-701-1028","BASELINE","BASELINE","Baseline","Baseline",1,3
"2013-07-19_2014-01-14","EX","TREATMENT",81,"PATCH","QD","mg","2014-01-06","2014-01-06",172,"TRANSDERMAL","TRANSDERMAL",2,"2013-08-02","2013-08-02",15,"XANOMELINE","Xanomeline","2013-08-02_2014-01-06","2013-08-02_2014-01-06","2014-01-14","2013-07-19","CDISCPILOT01","01-701-1028","WEEK 2","WEEK2","Week 2","Wk2",14,4
"2013-07-19_2014-01-14","EX","TREATMENT",54,"PATCH","QD","mg","2014-01-14","2014-01-14",180,"TRANSDERMAL","TRANSDERMAL",3,"2014-01-07","2014-01-07",173,"XANOMELINE","Xanomeline","2014-01-07_2014-01-14","2014-01-07_2014-01-14","2014-01-14","2013-07-19","CDISCPILOT01","01-701-1028","WEEK 24","WEEK24","Week 24","Wk24",168,12
