"studyid","domain","usubjid","subjid","rfstdtc","rfendtc","brthdtc","age","ageu","sex","species","strain","armcd","setcd"
"CV01","DM","CV01_P656","P656","2014-10-17","2014-11-08","2012-11-16",700,"DAYS","F","DOG","BEAGLE","3","3"
"CV01","DM","CV01_R159","R159","2014-10-17","2014-11-08","2012-09-16",761,"DAYS","F","DOG","BEAGLE","4","4"
"CV01","DM","CV01_Q399","Q399","2014-10-17","2014-11-08","2012-11-25",691,"DAYS","M","DOG","BEAGLE","1","1"
"CV01","DM","CV01_R545","R545","2014-10-17","2014-11-08","2013-02-18",606,"DAYS","M","DOG","BEAGLE","2","2"
